scanname 扫描022
timestamp 1/1/1970 01:38
scancount 26
laserwavenum 850.5
measurementstate Unknown
scanmode Identification
snr 3.0046 3.0046 3.0046
replacelist 0
peaks 17
698.806 0.0214825 0 2.10369 0.000195146
759.01 0.0104343 0 1.37119 7.19684e-05
910.524 0.000178763 0 2.22244 3.18578e-05
966.294 0.00717528 0 5.77735 4.63887e-05
1026 0.00380957 0 2.714 2.18658e-05
1067.03 0.00120771 0 0.341381 1.09956e-05
1394.34 0.00378524 0 0.582602 1.57807e-05
1451.17 0.0174463 0 7.67936 9.11293e-05
1493.47 0.0118844 0 5.57043 6.98095e-05
1538.67 0.00854 0 2.76994 4.28237e-05
1557.42 0.00823241 0 3.20847 4.79462e-05
1649.54 0.0070705 0 2.86109 4.70676e-05
1697.8 0.00647341 0 2.61853 4.08016e-05
1734.74 0.00458605 0 1.72478 2.97845e-05
1768 0.00253544 0 0.829677 1.9681e-05
1792.79 0.00150837 0 0.780289 1.94062e-05
2359.77 0.00456641 0 0.551951 1.66461e-05
finalresult No match found 1A13496	5.03057e-05
spectrum 2048
0 0.719381
2.86447 -0.816205
5.72895 -1.3724
8.59342 -1.50163
11.4579 -1.99285
14.3224 -0.924444
17.1868 -2.30895
20.0513 -2.49097
22.9158 0.195719
25.7803 -0.0615427
28.6447 -0.0877093
31.5092 -0.831574
34.3737 -0.136726
37.2382 0.412571
40.1026 0.432816
42.9671 -1.08145
45.8316 -0.352897
48.696 -0.656805
51.5605 -0.476585
54.425 -1.04858
57.2895 0.271346
60.1539 0.607939
63.0184 2.14216
65.8829 1.64666
68.7474 -0.542875
71.6118 0.74811
74.4763 0.844418
77.3408 0.827086
80.2053 1.00991
83.0697 0.230444
85.9342 0.288907
88.7987 0.0387374
91.6632 0.706253
94.5276 0.562665
97.3921 -1.02961
100.257 -0.602342
103.121 -0.399462
105.986 -0.288026
108.85 0.510188
111.714 1.53959
114.579 0.99528
117.443 -1.62682
120.308 -0.462585
123.172 1.51483
126.037 -1.03889
128.901 -1.94867
131.766 -0.484562
134.63 0.102587
137.495 0.732295
140.359 1.7589
143.224 -0.34072
146.088 -0.881634
148.953 -0.670353
151.817 -1.22365
154.682 1.42195
157.546 0.649236
160.411 -0.275056
163.275 0.563578
166.139 0.205798
169.004 -0.488375
171.868 -1.82688
174.733 0.0637845
177.597 0.454194
180.462 1.39958
183.326 0.455399
186.191 0.642967
189.055 -0.424749
191.92 0.594994
194.784 0.306582
197.649 0.67836
200.513 1.11747
203.378 0.696839
206.242 0.254647
209.107 1.41229
211.971 2.50197
214.836 0.474902
217.7 1.93708
220.564 0.698412
223.429 -0.231422
226.293 -0.619388
229.158 -0.140879
232.022 1.14008
234.887 1.57336
237.751 0.865957
240.616 1.56749
243.48 -0.0957619
246.345 0.239916
249.209 0.531539
252.074 -0.403608
254.938 -0.393993
257.803 -0.0789275
260.667 0.942251
263.532 1.82005
266.396 1.31477
269.26 -0.0904903
272.125 0.423411
274.989 -0.299712
277.854 1.22364
280.718 0.292289
283.583 0.154957
286.447 -2.14222
289.312 -0.768849
292.176 0.700734
295.041 1.42071
297.905 0.552162
300.77 0.0269833
303.634 -0.908087
306.499 -1.96145
309.363 -0.548164
312.228 0.943206
315.092 0.0680185
317.957 -0.108063
320.821 0.933412
323.686 0.449825
326.55 0.353411
329.414 -0.806583
332.279 1.47517
335.143 1.3448
338.008 -0.441753
340.872 2.16533
343.737 1.2186
346.601 -0.0485025
349.466 -0.970745
352.33 0.344983
355.195 0.338702
358.059 -0.791268
360.924 2.0638
363.788 0.986247
366.653 0.957795
369.517 1.0154
372.382 1.71564
375.246 0.254342
378.111 0.708421
380.975 0.244688
383.839 0.115041
386.704 0.0599541
389.568 2.4464
392.433 1.28321
395.297 0.906119
398.162 -0.401832
401.026 -0.10774
403.891 -0.731748
406.755 -0.203356
409.62 -0.727367
412.484 -0.00359097
415.349 0.38542
418.213 0.14346
421.078 -0.453772
423.942 0.366595
426.807 -0.56095
429.671 1.30081
432.535 0.127663
435.4 -0.0890338
438.264 -0.264713
441.129 0.500709
443.993 0.449599
446.858 -1.63266
449.722 -0.885525
452.587 0.168129
455.451 1.81149
458.316 1.40368
461.18 1.16518
464.045 0.251407
466.909 -0.436941
469.774 0.138259
472.638 0.446008
475.503 1.19143
478.367 0.668575
481.232 1.04952
484.096 0.807403
486.961 0.480224
489.825 -0.931037
492.689 1.45436
495.554 0.789289
498.418 1.01179
501.283 -0.111395
504.147 0.745919
507.012 -0.256546
509.876 1.68011
512.741 2.18015
515.605 1.57354
518.47 -0.462025
521.334 1.92081
524.199 -1.63293
527.063 -0.617623
529.928 0.767007
532.792 0.799803
535.657 0.767229
538.521 -1.71353
541.385 1.23164
544.25 2.76053
547.115 0.642693
549.979 0.0346049
552.843 0.637604
555.708 0.758401
558.572 0.340314
561.437 0.548617
564.301 -0.417455
567.166 -0.699351
570.03 -0.994811
572.895 0.174763
575.759 1.1416
578.624 0.22132
581.488 -0.760433
584.353 -2.04293
587.217 -0.506467
590.082 -0.0715271
592.946 0.214379
595.81 0.215514
598.675 -0.244374
601.539 -0.466487
604.404 0.0329655
607.268 -0.273332
610.133 -0.693308
612.997 -0.658956
615.862 -0.174164
618.726 -0.115776
621.591 -0.323967
624.455 0.137988
627.32 -0.0627906
630.184 -0.222791
633.049 -0.149532
635.913 -0.137482
638.778 -0.173629
641.642 0.0276408
644.507 -0.0558635
647.371 -0.035026
650.235 -0.0685662
653.1 -0.134683
655.964 -0.0799858
658.829 -0.0586823
661.693 -0.0417736
664.558 0.00238553
667.422 -0.0652902
670.287 -0.0735509
673.151 -0.0542957
676.016 0.0604299
678.88 -0.0350188
681.745 -0.00356407
684.609 0.0284646
687.474 -0.0267848
690.338 0.0493194
693.203 0.149084
696.067 0.197345
698.932 0.262476
701.796 0.226999
704.66 0.104031
707.525 0.00602188
710.389 -0.000386719
713.254 -0.0182614
716.118 -0.0676764
718.983 -0.102412
721.847 -0.10033
724.712 -0.14277
727.576 -0.0905729
730.441 -0.0888705
733.305 -0.0828973
736.17 -0.0582742
739.034 -0.0273353
741.899 -0.0228036
744.763 -0.0242258
747.628 0.0157748
750.492 0.0448839
753.357 0.0701599
756.221 0.112926
759.086 0.104367
761.95 0.113275
764.814 0.0633571
767.679 0.0414791
770.543 0.0169204
773.408 -0.0113052
776.272 -0.0160708
779.137 -0.0344549
782.001 -0.0648623
784.866 -0.0683777
787.73 -0.0635636
790.595 -0.0500018
793.459 -0.0560623
796.324 -0.0659119
799.188 -0.0412018
802.053 -0.0565652
804.917 -0.0732379
807.782 -0.0660149
810.646 -0.0621098
813.51 -0.0762449
816.375 -0.0730241
819.239 -0.0678278
822.104 -0.0531257
824.968 -0.0743892
827.833 -0.0606468
830.697 -0.0608832
833.562 -0.0594566
836.426 -0.0492878
839.291 -0.0577577
842.155 -0.0540231
845.02 -0.0469591
847.884 -0.0561712
850.749 -0.0506737
853.613 -0.0535824
856.478 -0.0605896
859.342 -0.0624323
862.207 -0.0628161
865.071 -0.0684307
867.935 -0.0576326
870.8 -0.0465089
873.664 -0.046448
876.529 -0.039168
879.393 -0.0340846
882.258 -0.0441393
885.122 -0.0577112
887.987 -0.048333
890.851 -0.0507336
893.716 -0.0506614
896.58 -0.0357506
899.445 -0.0311341
902.309 -0.0280586
905.174 -0.0145896
908.038 0.00568336
910.903 0.00907033
913.767 -0.000165149
916.632 -0.0136448
919.496 -0.0297223
922.36 -0.039308
925.225 -0.0349141
928.089 -0.0383824
930.954 -0.0339217
933.818 -0.0317313
936.683 -0.031998
939.547 -0.0306041
942.412 -0.0214767
945.276 -0.0216374
948.141 -0.0183918
951.005 -0.00935029
953.87 0.00286885
956.734 0.0250739
959.599 0.0443752
962.463 0.0699481
965.328 0.0790518
968.192 0.0721466
971.057 0.0563696
973.921 0.0352127
976.785 0.0274089
979.65 0.0160003
982.514 0.0145295
985.379 0.0144539
988.243 0.0208618
991.108 0.0197219
993.972 0.0251
996.837 0.0172611
999.701 0.0189117
1002.57 0.02403
1005.43 0.022818
1008.29 0.0213277
1011.16 0.02276
1014.02 0.0209531
1016.89 0.023136
1019.75 0.026052
1022.62 0.0310663
1025.48 0.0381712
1028.35 0.0432652
1031.21 0.0371035
1034.07 0.0182647
1036.94 0.00693987
1039.8 -0.000155831
1042.67 -0.00203571
1045.53 -0.000467475
1048.4 0.00199497
1051.26 0.00411134
1054.13 0.0019007
1056.99 0.00454796
1059.86 0.00193075
1062.72 0.00797502
1065.58 0.00965973
1068.45 0.0183491
1071.31 0.0134016
1074.18 0.00284994
1077.04 -0.00221527
1079.91 -0.00418271
1082.77 -0.00699238
1085.64 -0.0114007
1088.5 -0.0120859
1091.36 -0.0219331
1094.23 -0.0201767
1097.09 -0.0241316
1099.96 -0.0205426
1102.82 -0.0239725
1105.69 -0.0216462
1108.55 -0.0207946
1111.42 -0.0164164
1114.28 -0.0144209
1117.14 -0.0160919
1120.01 -0.0204741
1122.87 -0.0301784
1125.74 -0.0218744
1128.6 -0.0239405
1131.47 -0.0226228
1134.33 -0.0417608
1137.2 -0.0296452
1140.06 -0.0239647
1142.92 -0.0228993
1145.79 -0.0237475
1148.65 -0.0156648
1151.52 -0.0130915
1154.38 -0.0153326
1157.25 -0.00629039
1160.11 -0.0111121
1162.98 -0.0172374
1165.84 -0.0100895
1168.71 -0.0195294
1171.57 -0.0166371
1174.43 -0.0151613
1177.3 -0.0206827
1180.16 -0.0119274
1183.03 -0.00781364
1185.89 -0.00703321
1188.76 -0.0181191
1191.62 -0.011345
1194.49 -0.00901035
1197.35 -0.0164416
1200.21 -0.00987203
1203.08 -0.00539491
1205.94 -0.00696964
1208.81 -0.00956468
1211.67 -0.012438
1214.54 -0.0175659
1217.4 -0.013942
1220.27 -0.0084017
1223.13 -0.00927074
1225.99 -0.00723428
1228.86 -0.0057889
1231.72 -0.0139936
1234.59 -0.0166005
1237.45 -0.00845182
1240.32 -0.0114426
1243.18 -0.00303847
1246.05 -0.00640257
1248.91 -0.00768237
1251.78 -0.00757281
1254.64 -0.00591867
1257.5 -0.0123745
1260.37 -0.00873652
1263.23 -0.0031171
1266.1 -0.00361063
1268.96 -0.00664967
1271.83 0.000654447
1274.69 -0.00530545
1277.56 -0.00937819
1280.42 -0.00655249
1283.28 -0.00493986
1286.15 -0.00703735
1289.01 0.00368462
1291.88 -0.000803426
1294.74 -0.000976309
1297.61 -0.00283048
1300.47 0.00817212
1303.34 0.00730261
1306.2 0.00962004
1309.06 0.00500068
1311.93 0.0105318
1314.79 0.0129125
1317.66 0.0190357
1320.52 0.0105813
1323.39 0.00500198
1326.25 0.00807331
1329.12 0.00485452
1331.98 0.00891262
1334.84 0.016845
1337.71 0.0274248
1340.57 0.0238392
1343.44 0.0230046
1346.3 0.0135187
1349.17 0.0215949
1352.03 0.0194671
1354.9 0.0199864
1357.76 0.0306544
1360.62 0.0432331
1363.49 0.0429941
1366.35 0.0272891
1369.22 0.0398763
1372.08 0.0338947
1374.95 0.033548
1377.81 0.020802
1380.68 0.0179746
1383.54 0.0225339
1386.41 0.0293975
1389.27 0.0230421
1392.13 0.0336675
1395 0.0480603
1397.86 0.0432582
1400.73 0.0221979
1403.59 0.0249321
1406.46 0.0149214
1409.32 0.0157259
1412.19 0.0233268
1415.05 0.0514284
1417.91 0.0815362
1420.78 0.0543123
1423.64 0.0425703
1426.51 0.0424663
1429.37 0.0677666
1432.24 0.0805546
1435.1 0.116302
1437.97 0.0973609
1440.83 0.0898631
1443.69 0.115393
1446.56 0.137416
1449.42 0.153198
1452.29 0.192539
1455.15 0.207666
1458.02 0.114779
1460.88 0.0483833
1463.75 0.0500117
1466.61 0.0294804
1469.47 0.0477355
1472.34 0.0824513
1475.2 0.0375973
1478.07 0.0117072
1480.93 0.0235084
1483.8 0.0282166
1486.66 0.0776329
1489.53 0.11436
1492.39 0.134949
1495.26 0.15043
1498.12 0.0759638
1500.98 0.04181
1503.85 0.0701507
1506.71 0.120107
1509.58 0.0492922
1512.44 0.0511321
1515.31 0.0677997
1518.17 0.0784958
1521.04 0.108158
1523.9 0.0659643
1526.76 0.0429311
1529.63 0.0285183
1532.49 0.0656282
1535.36 0.0561094
1538.22 0.110035
1541.09 0.112613
1543.95 0.0685152
1546.82 0.0251549
1549.68 0.0465354
1552.54 0.0566788
1555.41 0.0993044
1558.27 0.152046
1561.14 0.0344617
1564 0.0185849
1566.87 0.0316725
1569.73 0.0362089
1572.6 0.022678
1575.46 0.0517524
1578.33 0.00874998
1581.19 0.00707185
1584.05 0.00705396
1586.92 -0.00137692
1589.78 -0.00748856
1592.65 0.00939511
1595.51 0.0188678
1598.38 0.0258546
1601.24 0.0365362
1604.11 0.0236159
1606.97 0.0113464
1609.83 0.0085679
1612.7 0.013808
1615.56 0.0417538
1618.43 0.0205968
1621.29 0.0255327
1624.16 0.0206449
1627.02 0.0203271
1629.89 0.0100284
1632.75 0.0477692
1635.61 0.0712879
1638.48 0.02537
1641.34 0.0178813
1644.21 0.0449114
1647.07 0.0891893
1649.94 0.0652994
1652.8 0.111026
1655.67 0.0141931
1658.53 0.0104041
1661.39 0.024629
1664.26 0.0178285
1667.12 0.0422943
1669.99 0.0638759
1672.85 0.0449496
1675.72 0.0432872
1678.58 0.0328231
1681.45 0.055019
1684.31 0.0862378
1687.18 0.0246014
1690.04 0.029107
1692.9 0.0346621
1695.77 0.0894765
1698.63 0.0872996
1701.5 0.0519612
1704.36 0.0297379
1707.23 0.0101888
1710.09 0.0212289
1712.96 0.042958
1715.82 0.0665255
1718.68 0.0354953
1721.55 0.000181464
1724.41 0.0057072
1727.28 0.0184726
1730.14 0.0401018
1733.01 0.0785327
1735.87 0.028035
1738.74 0.0403173
1741.6 0.0191231
1744.46 0.0268606
1747.33 0.0323837
1750.19 0.046374
1753.06 0.0119859
1755.92 0.0170384
1758.79 0.0124137
1761.65 0.0209599
1764.52 0.000877882
1767.38 0.031429
1770.24 0.0352422
1773.11 0.0315111
1775.97 0.000494191
1778.84 -0.0048266
1781.7 -0.00619889
1784.57 -0.0030364
1787.43 0.00291134
1790.3 0.0236201
1793.16 0.0255434
1796.02 0.0051383
1798.89 -0.00193532
1801.75 0.00445856
1804.62 -0.0109546
1807.48 -0.0139792
1810.35 -0.0109954
1813.21 -0.0133914
1816.08 -0.00982193
1818.94 -0.0163292
1821.81 -0.015704
1824.67 0.00689009
1827.53 -0.00690916
1830.4 -0.0167222
1833.26 -0.0237567
1836.13 -0.0236074
1838.99 -0.0100404
1841.86 -0.0105631
1844.72 0.00721445
1847.59 -0.017571
1850.45 -0.0293151
1853.31 -0.0307588
1856.18 -0.0402812
1859.04 -0.030419
1861.91 -0.0160347
1864.77 -0.0119202
1867.64 -0.0106587
1870.5 -0.0224945
1873.37 -0.0314702
1876.23 -0.0353429
1879.09 -0.0390807
1881.96 -0.0293619
1884.82 -0.0375777
1887.69 -0.0281769
1890.55 -0.03707
1893.42 -0.0346465
1896.28 -0.0421679
1899.15 -0.0404433
1902.01 -0.0448009
1904.87 -0.0493978
1907.74 -0.0458302
1910.6 -0.037148
1913.47 -0.037261
1916.33 -0.0274572
1919.2 -0.0335385
1922.06 -0.0411849
1924.93 -0.042801
1927.79 -0.0495232
1930.66 -0.0440604
1933.52 -0.054016
1936.38 -0.060462
1939.25 -0.0501937
1942.11 -0.0476146
1944.98 -0.0557848
1947.84 -0.0559034
1950.71 -0.0628651
1953.57 -0.0589377
1956.44 -0.0680123
1959.3 -0.0591992
1962.16 -0.0692165
1965.03 -0.0635957
1967.89 -0.0546121
1970.76 -0.0736711
1973.62 -0.0928038
1976.49 -0.0725129
1979.35 -0.0763232
1982.22 -0.0720424
1985.08 -0.0700561
1987.94 -0.0593565
1990.81 -0.0795731
1993.67 -0.0632457
1996.54 -0.0635544
1999.4 -0.0770023
2002.27 -0.068978
2005.13 -0.0908239
2008 -0.0863701
2010.86 -0.0749327
2013.72 -0.088
2016.59 -0.0716177
2019.45 -0.0908528
2022.32 -0.071412
2025.18 -0.0664615
2028.05 -0.0791049
2030.91 -0.0849478
2033.78 -0.0839653
2036.64 -0.0823852
2039.51 -0.0750289
2042.37 -0.0838835
2045.23 -0.0745373
2048.1 -0.0725424
2050.96 -0.0696699
2053.83 -0.0474395
2056.69 -0.0537583
2059.56 -0.0585572
2062.42 -0.0386713
2065.29 -0.0478487
2068.15 -0.054901
2071.01 -0.0584295
2073.88 -0.0461063
2076.74 -0.044619
2079.61 -0.0516602
2082.47 -0.0514755
2085.34 -0.0401601
2088.2 -0.0378091
2091.07 -0.0469351
2093.93 -0.0399698
2096.79 -0.0448578
2099.66 -0.0353721
2102.52 -0.0324328
2105.39 -0.0407556
2108.25 -0.0436781
2111.12 -0.0435505
2113.98 -0.0392593
2116.85 -0.0482946
2119.71 -0.0480227
2122.58 -0.0434121
2125.44 -0.0404792
2128.3 -0.0438759
2131.17 -0.0410408
2134.03 -0.0519318
2136.9 -0.0587058
2139.76 -0.0539459
2142.63 -0.072963
2145.49 -0.0690351
2148.36 -0.0732104
2151.22 -0.0737398
2154.08 -0.0673843
2156.95 -0.0786657
2159.81 -0.0614391
2162.68 -0.0689749
2165.54 -0.0669515
2168.41 -0.0702624
2171.27 -0.0732572
2174.14 -0.0650669
2177 -0.0624364
2179.86 -0.0701732
2182.73 -0.0389745
2185.59 -0.0577869
2188.46 -0.0551964
2191.32 -0.0666125
2194.19 -0.0605529
2197.05 -0.0566321
2199.92 -0.0534939
2202.78 -0.0403258
2205.64 -0.0538227
2208.51 -0.0435551
2211.37 -0.0453563
2214.24 -0.04468
2217.1 -0.0414577
2219.97 -0.0366393
2222.83 -0.0416992
2225.7 -0.0251853
2228.56 -0.0277314
2231.43 -0.0255065
2234.29 -0.0214004
2237.15 -0.0197511
2240.02 -0.00966025
2242.88 -0.0197428
2245.75 -0.0110532
2248.61 -0.0276296
2251.48 -0.0315124
2254.34 -0.0404325
2257.21 -0.0378461
2260.07 -0.0373688
2262.93 -0.0320746
2265.8 -0.0299696
2268.66 -0.0215972
2271.53 -0.0347656
2274.39 -0.0237614
2277.26 -0.0153666
2280.12 -0.0143538
2282.99 -0.0143224
2285.85 -0.0129206
2288.71 -0.00536543
2291.58 -0.00930483
2294.44 -0.00348854
2297.31 -0.00125425
2300.17 -0.00252211
2303.04 -0.000612936
2305.9 0.00199549
2308.77 0.00562037
2311.63 0.00874557
2314.49 0.0178132
2317.36 0.0275749
2320.22 0.0290006
2323.09 0.0390336
2325.95 0.0320853
2328.82 0.0308575
2331.68 0.0313341
2334.55 0.0385731
2337.41 0.0374435
2340.28 0.0417833
2343.14 0.0278745
2346 0.0270599
2348.87 0.0263976
2351.73 0.0351302
2354.6 0.0368208
2357.46 0.0435335
2360.33 0.055424
2363.19 0.0451
2366.06 0.0318585
2368.92 0.0284727
2371.78 0.0254507
2374.65 0.0174932
2377.51 0.0128351
2380.38 0.0100328
2383.24 -0.00276374
2386.11 -0.00372443
2388.97 -0.0072198
2391.84 0.00111945
2394.7 0.00217056
2397.56 -0.00817796
2400.43 -0.00715365
2403.29 -0.00739967
2406.16 -0.00920926
2409.02 -0.0114575
2411.89 -0.00510792
2414.75 -0.00397944
2417.62 -0.00664605
2420.48 -0.00320298
2423.34 -0.00484212
2426.21 -0.0148884
2429.07 -0.0114389
2431.94 -0.00553038
2434.8 -0.00937767
2437.67 -0.0133083
2440.53 -0.00293551
2443.4 -0.00561156
2446.26 -0.000249016
2449.12 -0.00121078
2451.99 -0.00910438
2454.85 -0.00804308
2457.72 -0.00827252
2460.58 -0.0103111
2463.45 -0.0171281
2466.31 -0.0047149
2469.18 0.0010498
2472.04 0.00254275
2474.91 -0.00126305
2477.77 -0.00107413
2480.63 -0.0174952
2483.5 -0.010983
2486.36 -0.00923147
2489.23 -0.000188963
2492.09 -0.000796697
2494.96 0.00317167
2497.82 -0.00370374
2500.69 -0.00269855
2503.55 -0.0054099
2506.41 -0.00622267
2509.28 0.00145141
2512.14 0.00063244
2515.01 -0.00270786
2517.87 -0.00479454
2520.74 5.35843e-05
2523.6 0.00261501
2526.47 -0.00134483
2529.33 -0.00527494
2532.19 0.00445493
2535.06 0.00388645
2537.92 0.00411005
2540.79 0.00741593
2543.65 0.000480988
2546.52 -0.000322527
2549.38 -0.00436322
2552.25 -0.00227789
2555.11 -0.00441907
2557.98 0.0036955
2560.84 0.00507921
2563.7 0.00452075
2566.57 0.00388981
2569.43 0.0031209
2572.3 0.00802948
2575.16 0.00892896
2578.03 0.00131339
2580.89 -0.000560654
2583.76 0.00176656
2586.62 -0.00118179
2589.48 0.00814981
2592.35 0.00402506
2595.21 0.00806475
2598.08 -0.00682749
2600.94 0.00348202
2603.81 0.0029893
2606.67 0.00045251
2609.54 0.00976506
2612.4 0.0114775
2615.26 0.00879174
2618.13 0.00443524
2620.99 0.00903842
2623.86 0.00697643
2626.72 0.0172091
2629.59 0.0133676
2632.45 0.00943247
2635.32 0.0132077
2638.18 0.0144297
2641.04 0.00916112
2643.91 0.0173973
2646.77 0.011506
2649.64 0.0156994
2652.5 0.0154643
2655.37 0.0151446
2658.23 0.0109034
2661.1 0.0154771
2663.96 0.0179301
2666.82 0.0144614
2669.69 0.0178547
2672.55 0.0211857
2675.42 0.0175054
2678.28 0.0178316
2681.15 0.0126978
2684.01 0.0116392
2686.88 0.0102723
2689.74 0.0163856
2692.61 0.0187732
2695.47 0.0166639
2698.33 0.0152617
2701.2 0.0157605
2704.06 0.01378
2706.93 0.0129916
2709.79 0.0196756
2712.66 0.0141744
2715.52 0.0181505
2718.39 0.013425
2721.25 0.0196764
2724.11 0.018946
2726.98 0.0205768
2729.84 0.0123997
2732.71 0.0147814
2735.57 0.0163316
2738.44 0.0130412
2741.3 0.0160473
2744.17 0.0162978
2747.03 0.0152955
2749.89 0.0142381
2752.76 0.0125994
2755.62 0.013874
2758.49 0.0182514
2761.35 0.018781
2764.22 0.0165509
2767.08 0.0173094
2769.95 0.0196296
2772.81 0.0220887
2775.68 0.0178727
2778.54 0.0140329
2781.4 0.019704
2784.27 0.0196834
2787.13 0.0182644
2790 0.0178204
2792.86 0.0206681
2795.73 0.0265481
2798.59 0.0192916
2801.46 0.0187947
2804.32 0.0273694
2807.18 0.024911
2810.05 0.0245759
2812.91 0.0327
2815.78 0.0321349
2818.64 0.0300635
2821.51 0.0286421
2824.37 0.0302154
2827.24 0.031544
2830.1 0.0421082
2832.96 0.0503399
2835.83 0.0525127
2838.69 0.0564787
2841.56 0.0613025
2844.42 0.0642965
2847.29 0.0783374
2850.15 0.0734056
2853.02 0.0721163
2855.88 0.062648
2858.74 0.0627919
2861.61 0.0601375
2864.47 0.0525407
2867.34 0.0554883
2870.2 0.0470286
2873.07 0.0509003
2875.93 0.052264
2878.8 0.0531368
2881.66 0.0544858
2884.53 0.0667652
2887.39 0.0702851
2890.25 0.0734359
2893.12 0.0751317
2895.98 0.0811134
2898.85 0.0840161
2901.71 0.0876636
2904.58 0.0919469
2907.44 0.0998169
2910.31 0.106148
2913.17 0.112918
2916.03 0.126637
2918.9 0.120265
2921.76 0.117068
2924.63 0.115574
2927.49 0.112773
2930.36 0.105544
2933.22 0.102253
2936.09 0.0908891
2938.95 0.0828466
2941.81 0.0805863
2944.68 0.0740183
2947.54 0.0692916
2950.41 0.0579328
2953.27 0.0563662
2956.14 0.0461408
2959 0.0469802
2961.87 0.048294
2964.73 0.0485325
2967.59 0.035583
2970.46 0.0291408
2973.32 0.0322095
2976.19 0.0338887
2979.05 0.0380542
2981.92 0.0347745
2984.78 0.0376001
2987.65 0.0296569
2990.51 0.0260348
2993.38 0.0258408
2996.24 0.033127
2999.1 0.0353706
3001.97 0.0379359
3004.83 0.0394764
3007.7 0.0351493
3010.56 0.0399573
3013.43 0.0336237
3016.29 0.0340419
3019.16 0.0411859
3022.02 0.0526287
3024.88 0.0554094
3027.75 0.05525
3030.61 0.0510129
3033.48 0.0437913
3036.34 0.0307926
3039.21 0.0277484
3042.07 0.0290382
3044.94 0.0211584
3047.8 0.0229976
3050.66 0.0216755
3053.53 0.0324369
3056.39 0.028658
3059.26 0.0301067
3062.12 0.0307644
3064.99 0.0350282
3067.85 0.0324332
3070.72 0.0293204
3073.58 0.0169656
3076.44 0.0245835
3079.31 0.0331977
3082.17 0.0282903
3085.04 0.0314478
3087.9 0.0261686
3090.77 0.0178628
3093.63 0.0129317
3096.5 0.0105746
3099.36 0.0128431
3102.23 0.0208509
3105.09 0.0187838
3107.95 0.0133985
3110.82 0.022409
3113.68 0.0139288
3116.55 0.0107181
3119.41 0.0227105
3122.28 0.012388
3125.14 0.0154506
3128.01 0.0230473
3130.87 0.0160099
3133.73 0.00413725
3136.6 0.0107326
3139.46 0.00697306
3142.33 0.0103927
3145.19 0.0125781
3148.06 0.0192105
3150.92 0.017034
3153.79 0.0150708
3156.65 0.0243153
3159.51 0.0206808
3162.38 0.00870563
3165.24 0.00893389
3168.11 0.0134546
3170.97 0.0135977
3173.84 0.0162084
3176.7 0.0119473
3179.57 0.0147292
3182.43 0.00493123
3185.29 0.0116848
3188.16 0.0152238
3191.02 0.00805982
3193.89 0.0178394
3196.75 0.0206902
3199.62 0.0196197
3202.48 0.0150316
3205.35 0.0169433
3208.21 0.0136527
3211.07 0.0148074
3213.94 0.0125342
3216.8 0.0174592
3219.67 0.0168209
3222.53 0.0159369
3225.4 0.014075
3228.26 0.0155714
3231.13 0.00899355
3233.99 0.0197539
3236.86 0.0180492
3239.72 0.0171187
3242.58 0.0198702
3245.45 0.0143339
3248.31 0.0106488
3251.18 0.011872
3254.04 0.0196996
3256.91 0.0224495
3259.77 0.0237148
3262.64 0.0230088
3265.5 0.0138054
3268.36 0.0172226
3271.23 0.0185904
3274.09 0.0249737
3276.96 0.0174176
3279.82 0.0145848
3282.69 0.0121453
3285.55 0.00897747
3288.42 0.00954195
3291.28 0.0321138
3294.14 0.0247365
3297.01 0.0186099
3299.87 0.0252749
3302.74 0.0260504
3305.6 0.0198806
3308.47 0.0270393
3311.33 0.0272329
3314.2 0.0128572
3317.06 0.0175787
3319.93 0.0143308
3322.79 0.0128919
3325.65 0.0240922
3328.52 0.0213667
3331.38 0.0152952
3334.25 0.0156893
3337.11 0.0158309
3339.98 0.0174488
3342.84 0.02149
3345.71 0.0268291
3348.57 0.0161762
3351.43 0.0155033
3354.3 0.0239181
3357.16 0.0185631
3360.03 0.00716519
3362.89 0.00862963
3365.76 0.0263692
3368.62 0.0237049
3371.49 0.0300137
3374.35 0.0279107
3377.21 0.0190503
3380.08 0.0206694
3382.94 0.0198826
3385.81 0.0209034
3388.67 0.0250838
3391.54 0.0282895
3394.4 0.0258975
3397.27 0.0160388
3400.13 0.0234069
3402.99 0.0159803
3405.86 0.0237096
3408.72 0.0235662
3411.59 0.0233879
3414.45 0.0224469
3417.32 0.0196827
3420.18 0.0311106
3423.05 0.0237679
3425.91 0.0210111
3428.77 0.0235417
3431.64 0.0151349
3434.5 0.0193985
3437.37 0.0270138
3440.23 0.0345209
3443.1 0.0508631
3445.96 0.0340121
3448.83 0.0291093
3451.69 0.0163511
3454.56 0.026053
3457.42 0.0155363
3460.28 0.02679
3463.15 0.028492
3466.01 0.0406627
3468.88 0.0342198
3471.74 0.0268156
3474.61 0.0229843
3477.47 0.0244403
3480.34 0.0263327
3483.2 0.02947
3486.06 0.0296193
3488.93 0.025597
3491.79 0.0418758
3494.66 0.0398194
3497.52 0.0372142
3500.39 0.0417603
3503.25 0.016784
3506.12 0.0306628
3508.98 0.0421145
3511.84 0.0355018
3514.71 0.0294356
3517.57 0.0459975
3520.44 0.0453806
3523.3 0.0409013
3526.17 0.0489466
3529.03 0.0277262
3531.9 0.0390987
3534.76 0.0585066
3537.62 0.0479839
3540.49 0.045277
3543.35 0.0424843
3546.22 0.0504082
3549.08 0.0507405
3551.95 0.0427042
3554.81 0.0403131
3557.68 0.0467115
3560.54 0.0406659
3563.41 0.0545686
3566.27 0.0734401
3569.13 0.0511607
3572 0.0513385
3574.86 0.0407973
3577.73 0.0375886
3580.59 0.0564485
3583.46 0.0475159
3586.32 0.0792004
3589.19 0.0648551
3592.05 0.0619938
3594.91 0.0518446
3597.78 0.0428129
3600.64 0.0519455
3603.51 0.0506143
3606.37 0.0710642
3609.24 0.0816154
3612.1 0.0743572
3614.97 0.064142
3617.83 0.0771702
3620.69 0.0664592
3623.56 0.0521676
3626.42 0.103204
3629.29 0.0819607
3632.15 0.050448
3635.02 0.0435267
3637.88 0.0505067
3640.75 0.0433442
3643.61 0.0623024
3646.47 0.111643
3649.34 0.124589
3652.2 0.0561611
3655.07 0.06322
3657.93 0.0450244
3660.8 0.0559579
3663.66 0.0544375
3666.53 0.0783677
3669.39 0.0972023
3672.26 0.0977403
3675.12 0.102596
3677.98 0.0634246
3680.85 0.051085
3683.71 0.0488223
3686.58 0.0823002
3689.44 0.0803231
3692.31 0.0495985
3695.17 0.050608
3698.04 0.0362723
3700.9 0.0526452
3703.76 0.0453989
3706.63 0.0648627
3709.49 0.0958112
3712.36 0.0743388
3715.22 0.0587535
3718.09 0.0560184
3720.95 0.0800686
3723.82 0.0810338
3726.68 0.0777652
3729.54 0.0773934
3732.41 0.111415
3735.27 0.118831
3738.14 0.0734259
3741 0.103312
3743.87 0.128658
3746.73 0.105669
3749.6 0.133295
3752.46 0.0717918
3755.32 0.0708211
3758.19 0.0724511
3761.05 0.0499976
3763.92 0.0473882
3766.78 0.0710303
3769.65 0.055729
3772.51 0.0352915
3775.38 0.0388401
3778.24 0.0594294
3781.11 0.0425434
3783.97 0.0441114
3786.83 0.048644
3789.7 0.0464166
3792.56 0.0449166
3795.43 0.0627785
3798.29 0.0668554
3801.16 0.0954002
3804.02 0.0725546
3806.89 0.07813
3809.75 0.0466092
3812.61 0.0595074
3815.48 0.0807186
3818.34 0.0940869
3821.21 0.0878414
3824.07 0.0618723
3826.94 0.0686756
3829.8 0.0750783
3832.67 0.0673914
3835.53 0.0906544
3838.39 0.0884012
3841.26 0.0861287
3844.12 0.0716118
3846.99 0.0518066
3849.85 0.0974769
3852.72 0.150925
3855.58 0.0747596
3858.45 0.0717373
3861.31 0.084219
3864.17 0.0894258
3867.04 0.0811298
3869.9 0.068851
3872.77 0.0710474
3875.63 0.0478436
3878.5 0.0721326
3881.36 0.0699947
3884.23 0.087997
3887.09 0.0560295
3889.96 0.0701281
3892.82 0.0628468
3895.68 0.0402611
3898.55 0.0740855
3901.41 0.0923165
3904.28 0.0648309
3907.14 0.0421866
3910.01 0.0288805
3912.87 0.0392206
3915.74 0.0687093
3918.6 0.0594541
3921.46 0.0462748
3924.33 0.0471181
3927.19 0.039486
3930.06 0.0489647
3932.92 0.0462764
3935.79 0.0417616
3938.65 0.0378832
3941.52 0.0517694
3944.38 0.0424125
3947.24 0.0472139
3950.11 0.0429601
3952.97 0.0390921
3955.84 0.0349702
3958.7 0.0403487
3961.57 0.0252283
3964.43 0.0144705
3967.3 0.047456
3970.16 0.0443041
3973.02 0.0387006
3975.89 0.0157618
3978.75 0.0367495
3981.62 0.0361815
3984.48 0.0334405
3987.35 0.0286944
3990.21 0.0448761
3993.08 0.0320887
3995.94 0.0369391
3998.81 0.0440449
4001.67 0.0325224
4004.53 0.0485453
4007.4 0.0194661
4010.26 0.0248985
4013.13 0.0366206
4015.99 0.0396349
4018.86 0.0323018
4021.72 0.0282231
4024.59 0.0279912
4027.45 0.0369195
4030.31 0.0436203
4033.18 0.0277794
4036.04 0.0301375
4038.91 0.0337116
4041.77 0.0244585
4044.64 0.0313873
4047.5 0.0360907
4050.37 0.0513065
4053.23 0.029729
4056.09 0.0475031
4058.96 0.043898
4061.82 0.0401295
4064.69 0.052973
4067.55 0.0445609
4070.42 0.0309868
4073.28 0.0458143
4076.15 0.0450424
4079.01 0.0327227
4081.88 0.0268088
4084.74 0.0232726
4087.6 0.0522797
4090.47 0.0519177
4093.33 0.062487
4096.2 0.0491411
4099.06 0.02974
4101.93 0.0537097
4104.79 0.0404754
4107.66 0.0333341
4110.52 0.0522048
4113.38 0.0464106
4116.25 0.0620763
4119.11 0.0464182
4121.98 0.0358354
4124.84 0.0336748
4127.71 0.0391232
4130.57 0.0442976
4133.44 0.05421
4136.3 0.0422731
4139.16 0.0491283
4142.03 0.041518
4144.89 0.0380015
4147.76 0.0239821
4150.62 0.0308734
4153.49 0.0378754
4156.35 0.0294632
4159.22 0.0288193
4162.08 0.051619
4164.94 0.075854
4167.81 0.0529141
4170.67 0.0307709
4173.54 0.0485689
4176.4 0.0334317
4179.27 0.0479331
4182.13 0.0543836
4185 0.0391535
4187.86 0.0333641
4190.73 0.0309039
4193.59 0.0383817
4196.45 0.0342214
4199.32 0.043983
4202.18 0.0394014
4205.05 0.0420018
4207.91 0.0430257
4210.78 0.0479671
4213.64 0.0594056
4216.5 0.0808982
4219.37 0.0408093
4222.23 0.0438904
4225.1 0.0458664
4227.96 0.0513482
4230.83 0.0570501
4233.69 0.0523078
4236.56 0.0544514
4239.42 0.0546087
4242.29 0.0522957
4245.15 0.0376315
4248.01 0.0447322
4250.88 0.0559508
4253.74 0.0506363
4256.61 0.0561456
4259.47 0.0387489
4262.34 0.0197999
4265.2 0.0441341
4268.07 0.0545285
4270.93 0.0453934
4273.79 0.0544386
4276.66 0.0740375
4279.52 0.0603144
4282.39 0.0518897
4285.25 0.0521427
4288.12 0.049659
4290.98 0.0417258
4293.85 0.0407688
4296.71 0.0491851
4299.57 0.0491281
4302.44 0.0309871
4305.3 0.0216024
4308.17 0.0370646
4311.03 0.0427722
4313.9 0.050597
4316.76 0.0617633
4319.63 0.0459567
4322.49 0.0477624
4325.36 0.05879
4328.22 0.0565348
4331.08 0.0564451
4333.95 0.0543351
4336.81 0.0419571
4339.68 0.0354431
4342.54 0.0645558
4345.41 0.0369923
4348.27 0.0511256
4351.14 0.0571094
4354 0.0664529
4356.86 0.0568802
4359.73 0.062768
4362.59 0.0600829
4365.46 0.057122
4368.32 0.0628649
4371.19 0.0533567
4374.05 0.0530289
4376.92 0.0396934
4379.78 0.0536748
4382.64 0.0479755
4385.51 0.0290022
4388.37 0.0537637
4391.24 0.0692045
4394.1 0.0457251
4396.97 0.0551432
4399.83 0.0413557
4402.7 0.0571986
4405.56 0.0877262
4408.43 0.0678962
4411.29 0.0431379
4414.15 0.0654087
4417.02 0.046494
4419.88 0.0576167
4422.75 0.0609749
4425.61 0.0684986
4428.48 0.0466382
4431.34 0.0540245
4434.21 0.0501201
4437.07 0.0551485
4439.93 0.0552953
4442.8 0.0623552
4445.66 0.0772883
4448.53 0.0546958
4451.39 0.0617612
4454.26 0.052089
4457.12 0.0330738
4459.99 0.0548827
4462.85 0.0838372
4465.71 0.0860313
4468.58 0.0522119
4471.44 0.0654185
4474.31 0.0632717
4477.17 0.0485626
4480.04 0.0451813
4482.9 0.0585257
4485.77 0.061297
4488.63 0.0496276
4491.49 0.0685042
4494.36 0.0664211
4497.22 0.0533237
4500.09 0.0312233
4502.95 0.0348823
4505.82 0.0604102
4508.68 0.0543461
4511.55 0.0588524
4514.41 0.0623013
4517.27 0.047618
4520.14 0.0559477
4523 0.0776311
4525.87 0.0752481
4528.73 0.0692624
4531.6 0.0610179
4534.46 0.0695149
4537.33 0.0615291
4540.19 0.0451193
4543.06 0.0433225
4545.92 0.0506709
4548.78 0.0793096
4551.65 0.0627058
4554.51 0.0548525
4557.38 0.0526549
4560.24 0.0738909
4563.11 0.0871959
4565.97 0.046117
4568.84 0.0463405
4571.7 0.0728233
4574.56 0.0758002
4577.43 0.0507762
4580.29 0.0552772
4583.16 0.0898563
4586.02 0.0744728
4588.89 0.0658602
4591.75 0.0584953
4594.62 0.0323886
4597.48 0.0634519
4600.34 0.0852638
4603.21 0.0669876
4606.07 0.0868208
4608.94 0.0732485
4611.8 0.036725
4614.67 0.0540543
4617.53 0.0553443
4620.4 0.0285965
4623.26 0.0718216
4626.12 0.0773257
4628.99 0.0590825
4631.85 0.0840221
4634.72 0.0689223
4637.58 0.0612406
4640.45 0.0654702
4643.31 0.0799703
4646.18 0.0275077
4649.04 0.072235
4651.91 0.0525339
4654.77 0.0882321
4657.63 0.030088
4660.5 0.0446967
4663.36 0.0816523
4666.23 0.0460299
4669.09 0.041062
4671.96 0.0651176
4674.82 0.0607328
4677.69 0.0522452
4680.55 0.0703883
4683.41 0.0936849
4686.28 0.083583
4689.14 0.0919984
4692.01 0.0950147
4694.87 0.0413978
4697.74 0.0497467
4700.6 0.0850859
4703.47 0.0585168
4706.33 0.0838773
4709.19 0.0653191
4712.06 0.0608628
4714.92 0.0741255
4717.79 0.0727659
4720.65 0.0380806
4723.52 0.0553774
4726.38 0.0837332
4729.25 0.106261
4732.11 0.0348526
4734.97 0.0532678
4737.84 0.0656544
4740.7 0.068557
4743.57 0.0706306
4746.43 0.022768
4749.3 0.108649
4752.16 0.0540984
4755.03 0.0305877
4757.89 -0.00263025
4760.76 0.00370871
4763.62 0.142511
4766.48 0.137916
4769.35 0.140823
4772.21 0.137167
4775.08 0.101022
4777.94 0.0930051
4780.81 0.107268
4783.67 0.0669928
4786.54 0.0685752
4789.4 0.0495168
4792.26 0.0648296
4795.13 0.0535058
4797.99 0.0627575
4800.86 0.0968344
4803.72 0.00118341
4806.59 0.117907
4809.45 0.0352722
4812.32 0.112283
4815.18 0.150695
4818.04 0.168924
4820.91 0.11785
4823.77 0.0134401
4826.64 -0.0237449
4829.5 -0.0199175
4832.37 -0.0589551
4835.23 0.00365223
4838.1 0.0724227
4840.96 0.167558
4843.83 0.0754628
4846.69 0.119405
4849.55 0.164659
4852.42 -0.0140277
4855.28 0.0106652
4858.15 0.0504205
4861.01 -0.00956416
4863.88 0.104395
4866.74 0.0556784
4869.6 -0.0170414
4872.47 0.0805053
4875.33 0.0713289
4878.2 0.0507199
4881.06 0.0608665
4883.93 0.173346
4886.79 0.123963
4889.66 0.304069
4892.52 0.0887184
4895.39 0.151834
4898.25 0.0497211
4901.11 0.162159
4903.98 -0.130757
4906.84 0.0702104
4909.71 0.166716
4912.57 -0.184892
4915.44 0.0871256
4918.3 0.292989
4921.17 0.274641
4924.03 -0.0484677
4926.89 -0.1835
4929.76 -0.147292
4932.62 0.24774
4935.49 0.516399
4938.35 0.272154
4941.22 0.161578
4944.08 0.0520062
4946.95 0.396675
4949.81 -0.275351
4952.67 -0.536476
4955.54 -0.397538
4958.4 0.154197
4961.27 0.798545
4964.13 0.433246
4967 0.546594
4969.86 0.215633
4972.73 0.249325
4975.59 0.270326
4978.46 0.442843
4981.32 0.266535
4984.18 0.699584
4987.05 -0.30442
4989.91 0.339506
4992.78 0.222871
4995.64 0.0385805
4998.51 -0.0237418
5001.37 0.388717
5004.24 0.856018
5007.1 0.213579
5009.96 -0.5454
5012.83 -0.417229
5015.69 0.326035
5018.56 0.0968447
5021.42 0.16496
5024.29 -0.0701249
5027.15 0.962723
5030.02 0.127927
5032.88 0.512531
5035.75 0.561603
5038.61 -0.660205
5041.47 -1.38045
5044.34 0.194236
5047.2 0.0190604
5050.07 1.05733
5052.93 1.35747
5055.8 1.37174
5058.66 0.72298
5061.52 0.476143
5064.39 0.683209
5067.25 2.5818
5070.12 1.75573
5072.98 -1.19794
5075.85 1.40944
5078.71 0.796816
5081.58 0.248022
5084.44 -1.34368
5087.31 0.286121
5090.17 0.20696
5093.03 -0.671379
5095.9 -0.447338
5098.76 -0.89039
5101.63 -2.18888
5104.49 -0.587633
5107.36 2.00067
5110.22 -0.82409
5113.09 0.109393
5115.95 0.762244
5118.81 0.181788
5121.68 1.05168
5124.54 -0.436181
5127.41 -0.475527
5130.27 -0.89692
5133.14 0.435147
5136 1.47318
5138.87 -0.35443
5141.73 -0.72937
5144.59 0.766512
5147.46 0.149066
5150.32 1.0644
5153.19 0.310414
5156.05 -1.71495
5158.92 -1.68811
5161.78 -0.68047
5164.65 -0.676349
5167.51 0.450745
5170.38 0.385427
5173.24 -0.38572
5176.1 0.0906983
5178.97 0.671746
5181.83 0.182298
5184.7 -0.991813
5187.56 0.553349
5190.43 -0.835081
5193.29 -0.773363
5196.16 -0.355256
5199.02 -0.0462764
5201.88 -0.217531
5204.75 1.0766
5207.61 0.348232
5210.48 0.432581
5213.34 0.32913
5216.21 0.800431
5219.07 0.364698
5221.94 -0.302713
5224.8 -0.371284
5227.66 -0.996013
5230.53 0.509678
5233.39 -0.328968
5236.26 1.15765
5239.12 0.91597
5241.99 0.19819
5244.85 0.153667
5247.72 0.047322
5250.58 -1.09168
5253.44 -0.205581
5256.31 0.373047
5259.17 0.321201
5262.04 0.278563
5264.9 0.44319
5267.77 0.134616
5270.63 -0.0306349
5273.5 0.21886
5276.36 -0.106879
5279.23 0.632413
5282.09 -0.412349
5284.95 0.420055
5287.82 0.574946
5290.68 -0.265592
5293.55 0.0551136
5296.41 0.122882
5299.28 -0.20641
5302.14 -0.403981
5305.01 0.130404
5307.87 0.225492
5310.73 -0.476894
5313.6 0.39335
5316.46 0.764544
5319.33 0.438855
5322.19 0.651621
5325.06 0.16418
5327.92 0.425997
5330.79 -0.203594
5333.65 0.0092418
5336.51 0.567343
5339.38 -0.0223091
5342.24 -0.488562
5345.11 0.450142
5347.97 1.28238
5350.84 0.58419
5353.7 -0.00154253
5356.57 0.613265
5359.43 0.863705
5362.29 1.0156
5365.16 0.584923
5368.02 0.482156
5370.89 -0.956726
5373.75 -0.954911
5376.62 -0.0572821
5379.48 0.231122
5382.35 0.985448
5385.21 0.198468
5388.08 -0.280317
5390.94 -0.0503483
5393.8 -0.152995
5396.67 -0.274961
5399.53 0.910361
5402.4 -0.310681
5405.26 0.672134
5408.13 1.10156
5410.99 0.568492
5413.86 -0.00373633
5416.72 0.353582
5419.58 0.505246
5422.45 1.17926
5425.31 1.21425
5428.18 -0.106001
5431.04 0.128289
5433.91 0.0282999
5436.77 0.482208
5439.64 0.225272
5442.5 -0.093231
5445.36 -0.609143
5448.23 -1.13745
5451.09 0.0251245
5453.96 0.180703
5456.82 0.475614
5459.69 0.562227
5462.55 -0.00344302
5465.42 -0.464049
5468.28 -0.978189
5471.15 -1.03975
5474.01 0.00144209
5476.87 0.393834
5479.74 0.352105
5482.6 0.251208
5485.47 0.819739
5488.33 0.773555
5491.2 0.525141
5494.06 1.88046
5496.92 0.21654
5499.79 1.606
5502.65 0.718282
5505.52 -0.655124
5508.38 0.0533072
5511.25 -0.616311
5514.11 -0.273905
5516.98 0.488955
5519.84 0.514571
5522.71 -0.132196
5525.57 0.622275
5528.43 0.787022
5531.3 -0.378263
5534.16 -0.579998
5537.03 0.25298
5539.89 0.169822
5542.76 -0.978086
5545.62 -0.385386
5548.49 -0.29284
5551.35 -0.405881
5554.21 -0.122264
5557.08 1.01769
5559.94 1.69995
5562.81 -0.253843
5565.67 -0.0935973
5568.54 -0.585901
5571.4 0.543232
5574.27 1.01276
5577.13 -1.31789
5579.99 -0.237286
5582.86 1.74732
5585.72 1.19448
5588.59 1.57221
5591.45 1.20863
5594.32 0.289811
5597.18 0.287864
5600.05 0.525858
5602.91 -0.282954
5605.78 1.19531
5608.64 0.437661
5611.5 0.45737
5614.37 0.143262
5617.23 0.674916
5620.1 0.779342
5622.96 1.15342
5625.83 0.338331
5628.69 0.884733
5631.56 0.366876
5634.42 0.688873
5637.28 0.22655
5640.15 0.533175
5643.01 0.500836
5645.88 -0.266724
5648.74 -0.547595
5651.61 -0.635074
5654.47 0.634158
5657.34 0.867508
5660.2 -0.0528265
5663.06 0.736606
5665.93 0.432225
5668.79 0.541001
5671.66 0.170346
5674.52 1.18166
5677.39 0.985017
5680.25 0.857746
5683.12 0.407931
5685.98 -0.725995
5688.84 0.217296
5691.71 0.814558
5694.57 0.899426
5697.44 1.34305
5700.3 1.68753
5703.17 0.502266
5706.03 0.381124
5708.9 0.461387
5711.76 0.255282
5714.62 0.898796
5717.49 0.282458
5720.35 -0.631717
5723.22 0.281864
5726.08 1.90271
5728.95 0.67932
5731.81 0.600204
5734.68 -1.97349
5737.54 -0.266172
5740.41 -0.362057
5743.27 0.0950311
5746.13 -0.836068
5749 -0.212814
5751.86 1.68534
5754.73 2.22305
5757.59 0.975531
5760.46 0.6876
5763.32 -0.368424
5766.19 -0.21717
5769.05 0.148554
5771.91 1.01346
5774.78 1.87917
5777.64 1.85572
5780.51 1.60128
5783.37 0.252086
5786.24 1.00507
5789.1 -0.744607
5791.97 0.194307
5794.83 0.231179
5797.69 0.438252
5800.56 0.459696
5803.42 -0.424164
5806.29 0.330623
5809.15 0.922614
5812.02 0.43137
5814.88 1.66202
5817.75 1.28942
5820.61 0.361736
5823.48 -0.328519
5826.34 1.05724
5829.2 0.252307
5832.07 0.315869
5834.93 0.909332
5837.8 0.246458
5840.66 0.00914634
5843.53 0.742183
5846.39 1.17616
5849.26 1.57209
5852.12 1.64988
5854.98 0.558393
5857.85 0.211347
5860.71 0.297896
5863.58 -1.39024
spectrumdark 2048
0 3436.82
2.8709 2313.16
5.74181 863.271
8.61271 794.6
11.4836 690.236
14.3545 946.677
17.2254 719.815
20.0963 795.86
22.9672 1568.36
25.8381 1687.7
28.709 1432.27
31.5799 1311.03
34.4509 1721.86
37.3218 2006.39
40.1927 2246.52
43.0636 1565.06
45.9345 1998.37
48.8054 2217.6
51.6763 2157.96
54.5472 1844.01
57.4181 2341.36
60.289 2476
63.1599 3226.23
66.0308 3429.22
68.9017 2390.89
71.7726 3366.72
74.6435 3318.04
77.5144 3549.29
80.3853 3958.76
83.2562 3800.63
86.1271 2870.9
88.998 2962.01
91.8689 3612.78
94.7398 3206.12
97.6107 2577.93
100.482 2745.98
103.353 3260.8
106.223 3283.45
109.094 3376.08
111.965 3922.49
114.836 3016.44
117.707 2364.82
120.578 3341.52
123.449 4392.32
126.32 2689.79
129.191 2565.19
132.062 2915.86
134.932 3450.54
137.803 3255.98
140.674 4128.23
143.545 3069.15
146.416 2939.54
149.287 2444.72
152.158 2394.72
155.029 3425.52
157.9 3282.35
160.771 3489.37
163.642 3847.98
166.512 3171.24
169.383 2837.4
172.254 2159.83
175.125 3052.28
177.996 3394.85
180.867 3806.78
183.738 3535.77
186.609 3169.85
189.48 2429.46
192.351 3376.59
195.221 2851.22
198.092 3297.69
200.963 3601.51
203.834 3443.7
206.705 3025.97
209.576 3927.09
212.447 4731.1
215.318 3231.93
218.189 3936.49
221.06 3411.03
223.931 2775.26
226.801 2444.67
229.672 3008
232.543 3280.8
235.414 3671.33
238.285 3706.49
241.156 3531.53
244.027 2984.54
246.898 3245.16
249.769 3092.37
252.64 2442.24
255.51 2365.45
258.381 2212.33
261.252 2809.91
264.123 3913.73
266.994 4037.66
269.865 3416.14
272.736 3231.05
275.607 2448.94
278.478 3384.12
281.349 2704.36
284.22 2609.74
287.09 1803.95
289.961 2727.2
292.832 2842.84
295.703 3434.87
298.574 2735.1
301.445 2650.73
304.316 2707.91
307.187 2048.06
310.058 2287.04
312.929 2651.33
315.799 2381.78
318.67 2117.55
321.541 2906.88
324.412 2617.7
327.283 2667.4
330.154 2043.78
333.025 3075.44
335.896 3089.02
338.767 2006.73
341.638 3579.83
344.509 2892.31
347.379 2320.68
350.25 1896.03
353.121 2573.13
355.992 2733.39
358.863 1940.83
361.734 3670.48
364.605 2741.79
367.476 2519.53
370.347 2603.05
373.218 3057.6
376.088 1714.62
378.959 2483.42
381.83 2182.45
384.701 2117.5
387.572 2148.08
390.443 3297.62
393.314 3139.66
396.185 2602.18
399.056 2178.95
401.927 1997.75
404.798 1529.42
407.668 1599.72
410.539 1654.63
413.41 2041.6
416.281 2134.99
419.152 1809.03
422.023 1828.32
424.894 2055.48
427.765 1785.1
430.636 2499.07
433.507 2008.14
436.378 1794.59
439.248 1806.69
442.119 2115.28
444.99 1782.68
447.861 1152.51
450.732 1751.16
453.603 2321.23
456.474 2795.26
459.345 2907
462.216 2514.88
465.087 2010.05
467.957 1601.5
470.828 2029.06
473.699 2445.32
476.57 2185.19
479.441 2076.3
482.312 2455.5
485.183 2150.09
488.054 2442.81
490.925 1727.83
493.796 2611.38
496.666 2239.89
499.537 2258.4
502.408 1751.22
505.279 2089.45
508.15 1746.17
511.021 2766.64
513.892 2871.27
516.763 2294.48
519.634 1706.17
522.505 2367.17
525.376 1426.73
528.246 1839.61
531.117 2222.57
533.988 2419.29
536.859 2425.41
539.73 1342.64
542.601 2326.95
545.472 3234.68
548.343 1960.68
551.214 1508.79
554.085 2101.09
556.955 2547.23
559.826 2034.55
562.697 2129.32
565.568 1661.02
568.439 1521.3
571.31 1651.13
574.181 2020.32
577.052 2916.74
579.923 2279.11
582.794 2144.4
585.664 1725.61
588.535 2766.15
591.406 3321.16
594.277 3928.61
597.148 4081.7
600.019 4472.14
602.89 4654.06
605.761 5681.8
608.632 5863.55
611.503 5810.6
614.374 6838.67
617.244 8652.93
620.115 9872.74
622.986 10930.8
625.857 13933.3
628.728 15269.7
631.599 16458.6
634.47 18339.1
637.341 20359.5
640.212 21950.4
643.083 25348.3
645.953 27256.2
648.824 29423.4
651.695 31526.3
654.566 33117.9
657.437 35629
660.308 38239.1
663.179 40716.2
666.05 42815.4
668.921 40883.1
671.792 47437.3
674.663 50354.3
677.533 53413.3
680.404 54546.8
683.275 57185.9
686.146 59353.7
689.017 61313.9
691.888 64042.9
694.759 66945.8
697.63 69664
700.501 72660.6
703.372 75583.9
706.242 77326.3
709.113 79590.7
711.984 83289.2
714.855 86371.7
717.726 88905
720.597 91331.5
723.468 94370.6
726.339 96910.8
729.21 100854
732.081 104291
734.952 107607
737.822 111039
740.693 115162
743.564 118234
746.435 121474
749.306 125692
752.177 129240
755.048 133140
757.919 137586
760.79 141010
763.661 146279
766.531 149256
769.402 154409
772.273 158770
775.144 162379
778.015 167162
780.886 170793
783.757 174073
786.628 177768
789.499 181332
792.37 185384
795.24 188630
798.111 191941
800.982 197678
803.853 201680
806.724 206310
809.595 211831
812.466 216842
815.337 221654
818.208 226438
821.079 231515
823.95 237054
826.82 240480
829.691 246470
832.562 250941
835.433 255391
838.304 260018
841.175 263193
844.046 267782
846.917 271719
849.788 275269
852.659 280373
855.53 284120
858.4 288058
861.271 292096
864.142 295493
867.013 299522
869.884 304051
872.755 308375
875.626 312203
878.497 316567
881.368 321924
884.239 325949
887.109 329886
889.98 335649
892.851 340190
895.722 344919
898.593 350630
901.464 355330
904.335 360431
907.206 365258
910.077 370910
912.948 376495
915.819 381655
918.689 387416
921.56 392437
924.431 398349
927.302 405130
930.173 411162
933.044 418223
935.915 424879
938.786 431195
941.657 438295
944.528 445886
947.398 453651
950.269 461838
953.14 470575
956.011 479993
958.882 489971
961.753 499983
964.624 511360
967.495 522609
970.366 534370
973.237 546936
976.107 559032
978.978 572153
981.849 583507
984.72 595485
987.591 606323
990.462 616563
993.333 624968
996.204 632525
999.075 636667
1001.95 639680
1004.82 639866
1007.69 637394
1010.56 632278
1013.43 625707
1016.3 617750
1019.17 609205
1022.04 600301
1024.91 590988
1027.78 580557
1030.65 570083
1033.53 558936
1036.4 547043
1039.27 535279
1042.14 522668
1045.01 510070
1047.88 497596
1050.75 485286
1053.62 472936
1056.49 459959
1059.36 447468
1062.23 434617
1065.11 422077
1067.98 409533
1070.85 398128
1073.72 386158
1076.59 374486
1079.46 363920
1082.33 354432
1085.2 346011
1088.07 338307
1090.94 331990
1093.81 325690
1096.69 321525
1099.56 318007
1102.43 315278
1105.3 312950
1108.17 311349
1111.04 309782
1113.91 309092
1116.78 308431
1119.65 308054
1122.52 307751
1125.39 307132
1128.27 307720
1131.14 307790
1134.01 307943
1136.88 306608
1139.75 307039
1142.62 307141
1145.49 306593
1148.36 305753
1151.23 304977
1154.1 303189
1156.97 301089
1159.85 299995
1162.72 298147
1165.59 296519
1168.46 294712
1171.33 291899
1174.2 289610
1177.07 286549
1179.94 283234
1182.81 280510
1185.68 277492
1188.55 274503
1191.43 271221
1194.3 268643
1197.17 265812
1200.04 262634
1202.91 260638
1205.78 258519
1208.65 256535
1211.52 255209
1214.39 253783
1217.26 253634
1220.13 254234
1223.01 255620
1225.88 257621
1228.75 260119
1231.62 263813
1234.49 267892
1237.36 272473
1240.23 278524
1243.1 284150
1245.97 290863
1248.84 296321
1251.71 301037
1254.59 304814
1257.46 306818
1260.33 306360
1263.2 306672
1266.07 308244
1268.94 309203
1271.81 309731
1274.68 310650
1277.55 310834
1280.42 310324
1283.29 310130
1286.17 309679
1289.04 308721
1291.91 308499
1294.78 307640
1297.65 306819
1300.52 306004
1303.39 305693
1306.26 304706
1309.13 303851
1312 302378
1314.87 300825
1317.75 300008
1320.62 298478
1323.49 299042
1326.36 298935
1329.23 298719
1332.1 297399
1334.97 296315
1337.84 293998
1340.71 289510
1343.58 291003
1346.45 294885
1349.33 293502
1352.2 292907
1355.07 291912
1357.94 290098
1360.81 288762
1363.68 282163
1366.55 282823
1369.42 287134
1372.29 285429
1375.16 281184
1378.03 280192
1380.91 284524
1383.78 284993
1386.65 282834
1389.52 273594
1392.39 279058
1395.26 274810
1398.13 266753
1401 270393
1403.87 276341
1406.74 274878
1409.61 277234
1412.48 277927
1415.36 276105
1418.23 269867
1421.1 250933
1423.97 263911
1426.84 269369
1429.71 272565
1432.58 267078
1435.45 267655
1438.32 251280
1441.19 260414
1444.06 272136
1446.94 270901
1449.81 262833
1452.68 264356
1455.55 259192
1458.42 231482
1461.29 236139
1464.16 263238
1467.03 254550
1469.9 260923
1472.77 255157
1475.64 235918
1478.52 253778
1481.39 265818
1484.26 267122
1487.13 265907
1490 253500
1492.87 246528
1495.74 257908
1498.61 243741
1501.48 247234
1504.35 253610
1507.22 231385
1510.1 207542
1512.97 242718
1515.84 247023
1518.71 237939
1521.58 230667
1524.45 216775
1527.32 236943
1530.19 241985
1533.06 249189
1535.93 235274
1538.8 237245
1541.68 204055
1544.55 207003
1547.42 231498
1550.29 246631
1553.16 242807
1556.03 233378
1558.9 214819
1561.77 184572
1564.64 230625
1567.51 242612
1570.38 241060
1573.26 231442
1576.13 241255
1579 219110
1581.87 242915
1584.74 246864
1587.61 246730
1590.48 245070
1593.35 242305
1596.22 240524
1599.09 238013
1601.96 235719
1604.84 231003
1607.71 226587
1610.58 220886
1613.45 215962
1616.32 209711
1619.19 188679
1622.06 198609
1624.93 197356
1627.8 196296
1630.67 200775
1633.54 203233
1636.42 195932
1639.29 184688
1642.16 210457
1645.03 212472
1647.9 201154
1650.77 193065
1653.64 196794
1656.51 171956
1659.38 221334
1662.25 229136
1665.12 222969
1668 227755
1670.87 222187
1673.74 215258
1676.61 222685
1679.48 220527
1682.35 228361
1685.22 214185
1688.09 198180
1690.96 230984
1693.83 230355
1696.7 223678
1699.58 197653
1702.45 196387
1705.32 210287
1708.19 222653
1711.06 230384
1713.93 231921
1716.8 220357
1719.67 204332
1722.54 216117
1725.41 233582
1728.28 233027
1731.16 229281
1734.03 218087
1736.9 197421
1739.77 217264
1742.64 218622
1745.51 224065
1748.38 224656
1751.25 219397
1754.12 215217
1756.99 227477
1759.86 224772
1762.74 227156
1765.61 221516
1768.48 228110
1771.35 217280
1774.22 211062
1777.09 212607
1779.96 224223
1782.83 222219
1785.7 221588
1788.57 220020
1791.44 220250
1794.32 210567
1797.19 210816
1800.06 217334
1802.93 213335
1805.8 213898
1808.67 215596
1811.54 212625
1814.41 208856
1817.28 208152
1820.15 202650
1823.02 196588
1825.9 192566
1828.77 186388
1831.64 185562
1834.51 183430
1837.38 187170
1840.25 184476
1843.12 180504
1845.99 174030
1848.86 171464
1851.73 176478
1854.6 175961
1857.48 174158
1860.35 172032
1863.22 170288
1866.09 168293
1868.96 164239
1871.83 159747
1874.7 161697
1877.57 162692
1880.44 161128
1883.31 159155
1886.18 157683
1889.06 154734
1891.93 152413
1894.8 150738
1897.67 150123
1900.54 148517
1903.41 147341
1906.28 145436
1909.15 143246
1912.02 141065
1914.89 139709
1917.76 137193
1920.64 134238
1923.51 133173
1926.38 131967
1929.25 130445
1932.12 127962
1934.99 125650
1937.86 122877
1940.73 119693
1943.6 116901
1946.47 114264
1949.34 112977
1952.21 111109
1955.09 108874
1957.96 106823
1960.83 103947
1963.7 100990
1966.57 98102.3
1969.44 96376.3
1972.31 95002.6
1975.18 93213.9
1978.05 91416.5
1980.92 90615.2
1983.79 92280
1986.67 95094.8
1989.54 96538.2
1992.41 97441
1995.28 97788.6
1998.15 98856.8
2001.02 99167.5
2003.89 98378
2006.76 97016.3
2009.63 94103.3
2012.5 92647.8
2015.37 92272.8
2018.25 91652.5
2021.12 91609.1
2023.99 91035.9
2026.86 91050.9
2029.73 90706.9
2032.6 90278.4
2035.47 89956
2038.34 90431.4
2041.21 91997.4
2044.08 94139
2046.95 95779.4
2049.83 97824.5
2052.7 100194
2055.57 105160
2058.44 108626
2061.31 110619
2064.18 112124
2067.05 113802
2069.92 115030
2072.79 116549
2075.66 118067
2078.53 119995
2081.41 121970
2084.28 123866
2087.15 125831
2090.02 127592
2092.89 128485
2095.76 128353
2098.63 127256
2101.5 126643
2104.37 127306
2107.24 128013
2110.11 128405
2112.99 128906
2115.86 129607
2118.73 130534
2121.6 130512
2124.47 129513
2127.34 127926
2130.21 125552
2133.08 122019
2135.95 117331
2138.82 111607
2141.69 107445
2144.57 104321
2147.44 100714
2150.31 97784.5
2153.18 94902.6
2156.05 92155.1
2158.92 88773.8
2161.79 83854
2164.66 82109.6
2167.53 84243.1
2170.4 86610
2173.27 88856.2
2176.15 90100.5
2179.02 90560.9
2181.89 90939.8
2184.76 90988
2187.63 91983.6
2190.5 92893
2193.37 94306.2
2196.24 95385.5
2199.11 96525.4
2201.98 97676.3
2204.85 98638.5
2207.73 99830.7
2210.6 100425
2213.47 101385
2216.34 102038
2219.21 103052
2222.08 103931
2224.95 104874
2227.82 105769
2230.69 107252
2233.56 108112
2236.43 109376
2239.31 110635
2242.18 112063
2245.05 113784
2247.92 115100
2250.79 117003
2253.66 118052
2256.53 119026
2259.4 120039
2262.27 121905
2265.14 124036
2268.01 125852
2270.89 127758
2273.76 130465
2276.63 132745
2279.5 136020
2282.37 139676
2285.24 143752
2288.11 148368
2290.98 153871
2293.85 159594
2296.72 164428
2299.59 168902
2302.47 172692
2305.34 175872
2308.21 178746
2311.08 181184
2313.95 183241
2316.82 184986
2319.69 186844
2322.56 189144
2325.43 192267
2328.3 199037
2331.17 204515
2334.05 202676
2336.92 200146
2339.79 198663
2342.66 198129
2345.53 200085
2348.4 204407
2351.27 210912
2354.14 212680
2357.01 200161
2359.88 187317
2362.75 179132
2365.63 175374
2368.5 174238
2371.37 175915
2374.24 180054
2377.11 185502
2379.98 190320
2382.85 193593
2385.72 194618
2388.59 193264
2391.46 191092
2394.33 188303
2397.21 185859
2400.08 183081
2402.95 179913
2405.82 177280
2408.69 174614
2411.56 171971
2414.43 170096
2417.3 168637
2420.17 167070
2423.04 165414
2425.91 163894
2428.79 162393
2431.66 160838
2434.53 159698
2437.4 158766
2440.27 157698
2443.14 156596
2446.01 156116
2448.88 155444
2451.75 155198
2454.62 154869
2457.49 154611
2460.36 154469
2463.24 154342
2466.11 153868
2468.98 153146
2471.85 152871
2474.72 152255
2477.59 151632
2480.46 150619
2483.33 149858
2486.2 148618
2489.07 148107
2491.95 147393
2494.82 147030
2497.69 146449
2500.56 146227
2503.43 145432
2506.3 145011
2509.17 144343
2512.04 143754
2514.91 143408
2517.78 143015
2520.65 142515
2523.53 141971
2526.4 141700
2529.27 141314
2532.14 140949
2535.01 140526
2537.88 140468
2540.75 140425
2543.62 140243
2546.49 140194
2549.36 139930
2552.23 139918
2555.1 139796
2557.98 139906
2560.85 140027
2563.72 140529
2566.59 140683
2569.46 141051
2572.33 141474
2575.2 141886
2578.07 142621
2580.94 143099
2583.81 143700
2586.68 144395
2589.56 145378
2592.43 146209
2595.3 147522
2598.17 148513
2601.04 149937
2603.91 150877
2606.78 152752
2609.65 154307
2612.52 155987
2615.39 158188
2618.26 160216
2621.14 162354
2624.01 164485
2626.88 167109
2629.75 169707
2632.62 172615
2635.49 175453
2638.36 178407
2641.23 181614
2644.1 185156
2646.97 188303
2649.84 192087
2652.72 195395
2655.59 199085
2658.46 202414
2661.33 205556
2664.2 208076
2667.07 210250
2669.94 211139
2672.81 210958
2675.68 210692
2678.55 210274
2681.42 209366
2684.3 208638
2687.17 207838
2690.04 207131
2692.91 206308
2695.78 205831
2698.65 205221
2701.52 204326
2704.39 203528
2707.26 202835
2710.13 202104
2713 201437
2715.88 200996
2718.75 199942
2721.62 199334
2724.49 198372
2727.36 197987
2730.23 197308
2733.1 196841
2735.97 195880
2738.84 195322
2741.71 194538
2744.58 193805
2747.46 193364
2750.33 192668
2753.2 191941
2756.07 191337
2758.94 190590
2761.81 189978
2764.68 189544
2767.55 188921
2770.42 188219
2773.29 187513
2776.16 187031
2779.04 186341
2781.91 185767
2784.78 184963
2787.65 184526
2790.52 183899
2793.39 183049
2796.26 182403
2799.13 181938
2802 181545
2804.87 180786
2807.74 180074
2810.62 179706
2813.49 178907
2816.36 178334
2819.23 177955
2822.1 177279
2824.97 176538
2827.84 175799
2830.71 175115
2833.58 174453
2836.45 173897
2839.32 173376
2842.2 172549
2845.07 171859
2847.94 170995
2850.81 169951
2853.68 169235
2856.55 168151
2859.42 167409
2862.29 166726
2865.16 166478
2868.03 166073
2870.9 165379
2873.78 165003
2876.65 164222
2879.52 163817
2882.39 163330
2885.26 162750
2888.13 162103
2891 161656
2893.87 161091
2896.74 160397
2899.61 159521
2902.48 159068
2905.36 158331
2908.23 157520
2911.1 156644
2913.97 155869
2916.84 154994
2919.71 154066
2922.58 153560
2925.45 152321
2928.32 151412
2931.19 150759
2934.06 150411
2936.94 150036
2939.81 149730
2942.68 149283
2945.55 148846
2948.42 148495
2951.29 148178
2954.16 147722
2957.03 146987
2959.9 146529
2962.77 145796
2965.64 145325
2968.52 144891
2971.39 144582
2974.26 144134
2977.13 143917
2980 143920
2982.87 143718
2985.74 143596
2988.61 143305
2991.48 143032
2994.35 142342
2997.22 141869
3000.1 141392
3002.97 141018
3005.84 140604
3008.71 140104
3011.58 139663
3014.45 138904
3017.32 138293
3020.19 137822
3023.06 137325
3025.93 136883
3028.8 136391
3031.68 135859
3034.55 135284
3037.42 134545
3040.29 134165
3043.16 133729
3046.03 133174
3048.9 132736
3051.77 132226
3054.64 131614
3057.51 131054
3060.38 130765
3063.26 130033
3066.13 129568
3069 128941
3071.87 128498
3074.74 128228
3077.61 127793
3080.48 126870
3083.35 126362
3086.22 126088
3089.09 125579
3091.96 125340
3094.83 124722
3097.71 124106
3100.58 123379
3103.45 122778
3106.32 122355
3109.19 122065
3112.06 121381
3114.93 120771
3117.8 120466
3120.67 119593
3123.54 119053
3126.41 118920
3129.29 118316
3132.16 117860
3135.03 117557
3137.9 116956
3140.77 116067
3143.64 115733
3146.51 115184
3149.38 114807
3152.25 114340
3155.12 113818
3157.99 113151
3160.87 112663
3163.74 112406
3166.61 111789
3169.48 111086
3172.35 110532
3175.22 110066
3178.09 109542
3180.96 109093
3183.83 108366
3186.7 107972
3189.57 107330
3192.45 106930
3195.32 106504
3198.19 105887
3201.06 105647
3203.93 105064
3206.8 104583
3209.67 104061
3212.54 103708
3215.41 103171
3218.28 102723
3221.15 102317
3224.03 102124
3226.9 101638
3229.77 101432
3232.64 100970
3235.51 100627
3238.38 100104
3241.25 100140
3244.12 99859
3246.99 99548.1
3249.86 99213.5
3252.73 98817.3
3255.61 98739.8
3258.48 98453.6
3261.35 98194.4
3264.22 98058.4
3267.09 97742.3
3269.96 97473.9
3272.83 97069.5
3275.7 96785.9
3278.57 96466.7
3281.44 96325.1
3284.31 96012.4
3287.19 95678
3290.06 95302.1
3292.93 94869.9
3295.8 94442.3
3298.67 94384.6
3301.54 94075.8
3304.41 93506.8
3307.28 93228.7
3310.15 92870
3313.02 92421.5
3315.89 92124.4
3318.77 91842.3
3321.64 91139.3
3324.51 90799.6
3327.38 90315.1
3330.25 89825.2
3333.12 89423.1
3335.99 89054.8
3338.86 88438.8
3341.73 87859.4
3344.6 87396.5
3347.47 87104.2
3350.35 86731.2
3353.22 86366.9
3356.09 85596.2
3358.96 85176
3361.83 84665.5
3364.7 84019.4
3367.57 83307
3370.44 82660.9
3373.31 82400.5
3376.18 82060.8
3379.05 81842.7
3381.93 81226.9
3384.8 80593.7
3387.67 80066.8
3390.54 79319.4
3393.41 78879.2
3396.28 78448.5
3399.15 77769.4
3402.02 77349.8
3404.89 76566.1
3407.76 76255.4
3410.63 75952.9
3413.51 75403.1
3416.38 74952.5
3419.25 74423.3
3422.12 73821.9
3424.99 73205.7
3427.86 72662.3
3430.73 72373.1
3433.6 71829.7
3436.47 71281.7
3439.34 70723.6
3442.21 70317
3445.09 69999.1
3447.96 69496.5
3450.83 69159.1
3453.7 68169.2
3456.57 68173
3459.44 67645
3462.31 67377.7
3465.18 66644
3468.05 66234.9
3470.92 65851
3473.79 65638.1
3476.67 65314.9
3479.54 64859.4
3482.41 64279.5
3485.28 63996.8
3488.15 63353.5
3491.02 63099.9
3493.89 62779.8
3496.76 62504.9
3499.63 62339
3502.5 61699.7
3505.37 61537.9
3508.25 60875.2
3511.12 60176.2
3513.99 60530.3
3516.86 60147.3
3519.73 60171.1
3522.6 59964.7
3525.47 59853.2
3528.34 59317.2
3531.21 58608.7
3534.08 58527.7
3536.95 58523.2
3539.83 58950.8
3542.7 58744.6
3545.57 58722
3548.44 58500.6
3551.31 57456.1
3554.18 57391.9
3557.05 58179.8
3559.92 57842.8
3562.79 58272.9
3565.66 58012
3568.53 57642
3571.41 56815.7
3574.28 55134.4
3577.15 57599.1
3580.02 58782.9
3582.89 58641
3585.76 58379.2
3588.63 58608.4
3591.5 57853.7
3594.37 55754.4
3597.24 58047.1
3600.11 58706
3602.98 58692.5
3605.86 59282
3608.73 59788.9
3611.6 60240.9
3614.47 58304
3617.34 58179.7
3620.21 58681.2
3623.08 59892.6
3625.95 58108.1
3628.82 60567
3631.69 62171.7
3634.56 57805.7
3637.44 58058.1
3640.31 62530.8
3643.18 63734.5
3646.05 64018.3
3648.92 63506
3651.79 62829.4
3654.66 57778.4
3657.53 56887.1
3660.4 62378.1
3663.27 61345.5
3666.15 63982.5
3669.02 64422.3
3671.89 64257.3
3674.76 61271.8
3677.63 56998.7
3680.5 58504.6
3683.37 55805.5
3686.24 61315.1
3689.11 62716.8
3691.98 62788.8
3694.85 58029
3697.72 58425.9
3700.6 62189.9
3703.47 63537.4
3706.34 62956.2
3709.21 61182.2
3712.08 62573.7
3714.95 61547.2
3717.82 57984
3720.69 59081.1
3723.56 62404.4
3726.43 61774.9
3729.3 60725.8
3732.18 59844.5
3735.05 60108.9
3737.92 58717.5
3740.79 55524.8
3743.66 54287.8
3746.53 58094.1
3749.4 56203.8
3752.27 50704.5
3755.14 54586.6
3758.01 51776.6
3760.88 56643.6
3763.76 60163.5
3766.63 59628.5
3769.5 61388.3
3772.37 60687.8
3775.24 60480.7
3778.11 59913.9
3780.98 62239.5
3783.85 62024.8
3786.72 60530.1
3789.59 61761.3
3792.46 61473.2
3795.34 61988.8
3798.21 61876.6
3801.08 60910.2
3803.95 58883.2
3806.82 56936.5
3809.69 55024.2
3812.56 57497.9
3815.43 56942.8
3818.3 60022.2
3821.17 57700
3824.04 54344.9
3826.92 55271.2
3829.79 54798.6
3832.66 58057
3835.53 58093.3
3838.4 56771.4
3841.27 55603
3844.14 52740.6
3847.01 53224.9
3849.88 55592.3
3852.75 56626.7
3855.62 56940.4
3858.5 52088.3
3861.37 45816.9
3864.24 53743.3
3867.11 56023.2
3869.98 54308.3
3872.85 53451.7
3875.72 52899.1
3878.59 51939
3881.46 53999.8
3884.33 55303.6
3887.2 53449.1
3890.08 53737.2
3892.95 51891.3
3895.82 53874.8
3898.69 52308.7
3901.56 53976.9
3904.43 53411.1
3907.3 50772.1
3910.17 50110.5
3913.04 51474.2
3915.91 53864
3918.78 53930.2
3921.66 53542.1
3924.53 52089.2
3927.4 52262.9
3930.27 52289.1
3933.14 51922.3
3936.01 52284.5
3938.88 51387.2
3941.75 51693.5
3944.62 52109.8
3947.49 51674.6
3950.36 50839.7
3953.24 50937.3
3956.11 50549.1
3958.98 50598.4
3961.85 50708.5
3964.72 50455.1
3967.59 50273.5
3970.46 49895.9
3973.33 49736.5
3976.2 49743.8
3979.07 49436.6
3981.94 48993.6
3984.82 48727.1
3987.69 48777.4
3990.56 48600.6
3993.43 48377
3996.3 48015.7
3999.17 47892.7
4002.04 47524.3
4004.91 47385.2
4007.78 47300.1
4010.65 46981.1
4013.52 46891.2
4016.4 46358.7
4019.27 46227.2
4022.14 46120.5
4025.01 45964.8
4027.88 45645.9
4030.75 45447.8
4033.62 45184.2
4036.49 45170.9
4039.36 45036.2
4042.23 44636.8
4045.1 44486.8
4047.98 44354.8
4050.85 43980.6
4053.72 43888.7
4056.59 43814.9
4059.46 43757.7
4062.33 43373.6
4065.2 43382.3
4068.07 43142
4070.94 42944.3
4073.81 42826.4
4076.68 42587.4
4079.56 42356.4
4082.43 42255.9
4085.3 42178.9
4088.17 41954.3
4091.04 41744.8
4093.91 41568.9
4096.78 41598.8
4099.65 41521.9
4102.52 41392.4
4105.39 41137.4
4108.26 40926.8
4111.14 40836.1
4114.01 40636.9
4116.88 40447.2
4119.75 40509
4122.62 40298.6
4125.49 40244.1
4128.36 40101.7
4131.23 39928.3
4134.1 39793
4136.97 39679.3
4139.84 39577.3
4142.72 39484.4
4145.59 39410.8
4148.46 39365.7
4151.33 39136.2
4154.2 38984
4157.07 38766
4159.94 38761.6
4162.81 38692.7
4165.68 38513.1
4168.55 38427.6
4171.42 38482.6
4174.3 38527.9
4177.17 38312.5
4180.04 38132.9
4182.91 38176
4185.78 37921.7
4188.65 37880.9
4191.52 37950
4194.39 37759
4197.26 37625.4
4200.13 37514.2
4203 37523.5
4205.87 37453.1
4208.75 37393.4
4211.62 37298.9
4214.49 37263.1
4217.36 37237.6
4220.23 37278.1
4223.1 37306.8
4225.97 37365.6
4228.84 37034.4
4231.71 37004.5
4234.58 36971.9
4237.45 36877.6
4240.33 36926.6
4243.2 36831.2
4246.07 36837.3
4248.94 36768.6
4251.81 36768.8
4254.68 36608.9
4257.55 36608.6
4260.42 36638.9
4263.29 36532.7
4266.16 36626.5
4269.03 36394.5
4271.91 36253.1
4274.78 36414.1
4277.65 36395
4280.52 36378.3
4283.39 36361.2
4286.26 36427.3
4289.13 36341.2
4292 36316.1
4294.87 36177.6
4297.74 36139.3
4300.61 36118.3
4303.49 36052.5
4306.36 36102.2
4309.23 36090.5
4312.1 35925
4314.97 35775.1
4317.84 35923.9
4320.71 35904.8
4323.58 35925.7
4326.45 35951.7
4329.32 35852.4
4332.19 35806.7
4335.07 35859.9
4337.94 35864.8
4340.81 35819.1
4343.68 35673
4346.55 35587.7
4349.42 35505.7
4352.29 35672.2
4355.16 35443.9
4358.03 35509.2
4360.9 35507.2
4363.77 35513.1
4366.65 35420.8
4369.52 35429.2
4372.39 35381.5
4375.26 35268.3
4378.13 35299.9
4381 35189.9
4383.87 35157.6
4386.74 35025.6
4389.61 35051.2
4392.48 34989.5
4395.35 34810.1
4398.23 34904.1
4401.1 34959.1
4403.97 34720.5
4406.84 34732.5
4409.71 34596.7
4412.58 34645.8
4415.45 34747.3
4418.32 34521.2
4421.19 34276.5
4424.06 34354.4
4426.93 34191.5
4429.81 34165.3
4432.68 34157.4
4435.55 34028.7
4438.42 33841.1
4441.29 33767.5
4444.16 33671.9
4447.03 33650.2
4449.9 33510.1
4452.77 33422.7
4455.64 33454.4
4458.51 33280.2
4461.39 33163.8
4464.26 32925.2
4467.13 32761.5
4470 32765.7
4472.87 32892.5
4475.74 32698.9
4478.61 32335.3
4481.48 32234.4
4484.35 32159.6
4487.22 31985.3
4490.09 31843.3
4492.97 31747.5
4495.84 31536.8
4498.71 31362.9
4501.58 31347.7
4504.45 31181.7
4507.32 30909.3
4510.19 30688.4
4513.06 30596.5
4515.93 30551.3
4518.8 30307.8
4521.67 30148
4524.55 29982.9
4527.42 29722.1
4530.29 29637.7
4533.16 29495.1
4536.03 29370.7
4538.9 29175.4
4541.77 28821.6
4544.64 28671.3
4547.51 28419.6
4550.38 28198
4553.25 28047.1
4556.13 27828.8
4559 27703.7
4561.87 27487.7
4564.74 27187.1
4567.61 26962.6
4570.48 26799.3
4573.35 26643
4576.22 26312.1
4579.09 26098.5
4581.96 26040.5
4584.83 25736
4587.71 25371.5
4590.58 25149.5
4593.45 25129.1
4596.32 24764.8
4599.19 24513.2
4602.06 24256.2
4604.93 23889
4607.8 23775.6
4610.67 23595.3
4613.54 23294.4
4616.41 23065.3
4619.29 22765.1
4622.16 22421.8
4625.03 22204.2
4627.9 21929.7
4630.77 21500.1
4633.64 21481.6
4636.51 21299.3
4639.38 20937.7
4642.25 20736.8
4645.12 20408.3
4647.99 20174.8
4650.87 19918.2
4653.74 19626.1
4656.61 19231.6
4659.48 19189.2
4662.35 18821
4665.22 18572.7
4668.09 18219.6
4670.96 17975
4673.83 17851.7
4676.7 17455.9
4679.57 17173.3
4682.45 16962.8
4685.32 16731.5
4688.19 16555.4
4691.06 16299.7
4693.93 16116.2
4696.8 15781.7
4699.67 15507.3
4702.54 15343.1
4705.41 14864.6
4708.28 14664.8
4711.15 14464.3
4714.03 14138.5
4716.9 13916.4
4719.77 13674
4722.64 13449.1
4725.51 13217.4
4728.38 13000.8
4731.25 12685.6
4734.12 12523.2
4736.99 12357.2
4739.86 12205.8
4742.73 11847.1
4745.6 11535.9
4748.48 11349.7
4751.35 11174.1
4754.22 10934
4757.09 10523.8
4759.96 10487.6
4762.83 10229.5
4765.7 10013.1
4768.57 9747.11
4771.44 9490.11
4774.31 9479.38
4777.18 9242.83
4780.06 9019.17
4782.93 8826.02
4785.8 8545.35
4788.67 8395.12
4791.54 8187.27
4794.41 7972.46
4797.28 7787.16
4800.15 7545.79
4803.02 7427.74
4805.89 7226.41
4808.76 7133.13
4811.64 6883.27
4814.51 6611.58
4817.38 6586.83
4820.25 6315.62
4823.12 6263.87
4825.99 6104.22
4828.86 5982.4
4831.73 5776.06
4834.6 5550.41
4837.47 5329.03
4840.34 5174.5
4843.22 5032.01
4846.09 4942.74
4848.96 4861.99
4851.83 4836.68
4854.7 4543.21
4857.57 4514.51
4860.44 4404.07
4863.31 4142.64
4866.18 4030.24
4869.05 3882.39
4871.92 3811.96
4874.8 3743.47
4877.67 3665.44
4880.54 3445.77
4883.41 3387.03
4886.28 3295.24
4889.15 3241.46
4892.02 3131.01
4894.89 3156.9
4897.76 2962.13
4900.63 2933.06
4903.5 2765.19
4906.38 2776.48
4909.25 2626.07
4912.12 2630.58
4914.99 2361.6
4917.86 2405.24
4920.73 2342.17
4923.6 2110.89
4926.47 2103.69
4929.34 2153.84
4932.21 2055.82
4935.08 1942.05
4937.96 1805.83
4940.83 1751.86
4943.7 1841.26
4946.57 1801.36
4949.44 1791.98
4952.31 1679.85
4955.18 1598.24
4958.05 1652.99
4960.92 1372.64
4963.79 1253.25
4966.67 1213.85
4969.54 1309.21
4972.41 1361.23
4975.28 1283.44
4978.15 1207.85
4981.02 1126.32
4983.89 1053.11
4986.76 1063.7
4989.63 1129.54
4992.5 986.991
4995.37 1008.61
4998.24 850.068
5001.12 983.934
5003.99 903.489
5006.86 833.338
5009.73 743.363
5012.6 764.341
5015.47 779.68
5018.34 684.535
5021.21 584.911
5024.08 581.138
5026.95 616.05
5029.82 634.476
5032.7 622.695
5035.57 578.172
5038.44 667.534
5041.31 475.351
5044.18 493.55
5047.05 545.657
5049.92 389.76
5052.79 286.112
5055.66 393.577
5058.53 359.969
5061.4 456.384
5064.28 434.794
5067.15 427
5070.02 400.864
5072.89 349.364
5075.76 301.776
5078.63 459.83
5081.5 410.641
5084.37 237.999
5087.24 338.805
5090.11 333.841
5092.98 270.03
5095.86 218.155
5098.73 298.336
5101.6 298.812
5104.47 244.321
5107.34 256.187
5110.21 276.55
5113.08 201.278
5115.95 284.216
5118.82 414.495
5121.69 278.598
5124.56 313.973
5127.44 352.636
5130.31 280.794
5133.18 294.852
5136.05 230.707
5138.92 256.307
5141.79 266.508
5144.66 324.077
5147.53 405.945
5150.4 350.914
5153.27 261.809
5156.14 384.883
5159.02 345.464
5161.89 416.903
5164.76 365.433
5167.63 226.62
5170.5 241.199
5173.37 291.702
5176.24 304.341
5179.11 438.037
5181.98 388.285
5184.85 290.117
5187.72 325.849
5190.6 461.783
5193.47 379.631
5196.34 326.99
5199.21 438.189
5202.08 339.529
5204.95 356.179
5207.82 373.299
5210.69 438.731
5213.56 393.634
5216.43 475.857
5219.3 493.836
5222.18 465.023
5225.05 404.459
5227.92 528.202
5230.79 469.744
5233.66 416.407
5236.53 430.946
5239.4 389.458
5242.27 478.549
5245.14 399.483
5248.01 559.659
5250.88 522.655
5253.75 458.315
5256.63 430.336
5259.5 442.061
5262.37 372.376
5265.24 439.8
5268.11 603.388
5270.98 570.262
5273.85 526.848
5276.72 469.383
5279.59 459.891
5282.46 476.4
5285.33 476.216
5288.21 483.836
5291.08 545.522
5293.95 490.326
5296.82 562.454
5299.69 540.775
5302.56 472.405
5305.43 545.444
5308.3 557.303
5311.17 504.082
5314.04 532.818
5316.92 547.776
5319.79 597.866
5322.66 529.592
5325.53 628.016
5328.4 659.366
5331.27 621.662
5334.14 677.863
5337.01 665.64
5339.88 685.942
5342.75 575.699
5345.62 567.409
5348.5 628.449
5351.37 633.74
5354.24 585.292
5357.11 655.317
5359.98 710.929
5362.85 653.485
5365.72 648.831
5368.59 684.052
5371.46 696.792
5374.33 779.531
5377.2 699.419
5380.07 629.492
5382.95 527.934
5385.82 473.754
5388.69 580.607
5391.56 627.927
5394.43 757.924
5397.3 655.221
5400.17 625.442
5403.04 538.686
5405.91 543.447
5408.78 595.221
5411.65 656.975
5414.53 554.908
5417.4 563.742
5420.27 688.016
5423.14 665.236
5426.01 565.128
5428.88 581.598
5431.75 596.217
5434.62 633.484
5437.49 663.969
5440.36 571.158
5443.23 532.275
5446.11 528.353
5448.98 571.798
5451.85 590.856
5454.72 554.396
5457.59 460.8
5460.46 421.967
5463.33 608.921
5466.2 610.096
5469.07 581.014
5471.94 568.686
5474.81 551.691
5477.69 501.993
5480.56 437.771
5483.43 427.273
5486.3 527.952
5489.17 496.556
5492.04 494.069
5494.91 522.143
5497.78 622.002
5500.65 554.096
5503.52 616.072
5506.4 719.293
5509.27 532.855
5512.14 660.577
5515.01 528.986
5517.88 381.373
5520.75 446.239
5523.62 405.808
5526.49 451.16
5529.36 482.66
5532.23 524.871
5535.1 463.422
5537.97 556.523
5540.85 578.129
5543.72 460.495
5546.59 422.707
5549.46 410.867
5552.33 440.677
5555.2 370.444
5558.07 425.872
5560.94 439.966
5563.81 487.886
5566.68 440.379
5569.55 549.701
5572.43 599.727
5575.3 450.4
5578.17 443.447
5581.04 377.308
5583.91 426.74
5586.78 509.438
5589.65 367.418
5592.52 394.799
5595.39 564.453
5598.26 612.808
5601.13 608.301
5604.01 587.956
5606.88 505.164
5609.75 468.461
5612.62 494.654
5615.49 424.071
5618.36 529.405
5621.23 505.023
5624.1 503.35
5626.97 459.489
5629.84 533.446
5632.71 558.558
5635.59 542.615
5638.46 484.677
5641.33 516.386
5644.2 472.764
5647.07 517.559
5649.94 491.605
5652.81 575.225
5655.68 504.43
5658.55 413.552
5661.42 431.535
5664.29 399.912
5667.17 501.1
5670.04 506.466
5672.91 435.391
5675.78 501.093
5678.65 495.12
5681.52 503.385
5684.39 464.314
5687.26 498.905
5690.13 558.296
5693 506.31
5695.87 514.017
5698.75 385.457
5701.62 454.738
5704.49 461.781
5707.36 474.565
5710.23 496.238
5713.1 522.808
5715.97 463.439
5718.84 472.598
5721.71 530.268
5724.58 514.563
5727.45 539.822
5730.33 473.806
5733.2 351.793
5736.07 498.787
5738.94 615.938
5741.81 509.822
5744.68 492.261
5747.55 290.292
5750.42 436.704
5753.29 425.392
5756.16 401.126
5759.03 379.476
5761.9 414.367
5764.78 615.221
5767.65 662.51
5770.52 555.951
5773.39 547.325
5776.26 405.75
5779.13 409.27
5782 436.298
5784.87 463.501
5787.74 543.291
5790.61 613.927
5793.48 588.163
5796.36 480.789
5799.23 534.872
5802.1 372.249
5804.97 456.075
5807.84 489.175
5810.71 506.721
5813.58 514.11
5816.45 387.245
5819.32 347.931
5822.19 482.479
5825.06 461.489
5827.94 499.26
5830.81 548.121
5833.68 484.211
5836.55 400.652
5839.42 537.919
5842.29 381.148
5845.16 426.945
5848.03 492.589
5850.9 431.602
5853.77 426.575
5856.65 447.978
5859.52 510.529
5862.39 572.724
5865.26 522.686
5868.13 429.204
5871 500.452
5873.87 506.863
5876.74 362.738
