scanname 扫描054
timestamp 8/4/2000 21:08
ccdbias 1696.17
ccdgain 2.46132
sigmaread 11.4449
laserwavenum -0.221113
wavenumcorrection -0.494018
scancount 1
totalexposurems 1000
singleexposurems 1000
measurementstate Unknown
scanmode Identification
snr 9.95146 9.95146 9.95146
replacelist 0
peaks 18
413.711 0.170727 0 0.716074 8.25582e-05
620.491 0.167371 0 4.2483 0.000457758
746.622 0.133875 0 0.478286 5.26877e-05
909.526 0.112263 0 0.0408829 1.2012e-05
1002.2 0.260729 0 18.3023 0.00258099
1031.97 0.15257 0 4.27843 0.000631228
1094.95 0.110846 0 0.205724 2.56334e-05
1157.93 0.116849 0 1.21741 0.000295993
1185.87 0.127489 0 0.998258 0.000277594
1198.29 0.128935 0 0.686985 0.000144305
1306.5 0.107621 0 0.171239 2.98034e-05
1450.73 0.106718 0 0.76238 0.000196248
1583.2 0.093871 0 1.10401 0.000416768
1602.77 0.122079 0 2.76333 0.000793568
1668.43 0.0809247 0 0.342721 0.000286393
1802.59 0.0608284 0 0.197177 3.56299e-05
2239.06 0.108114 0 0.948639 0.00103073
2878.33 0.114436 0 0.155145 0.00101215
finalresult Mixture 2A1	0.944354
A13496	0.0126453
spectrum 2048
-91.5628 0.0168504
-88.9648 0.016703
-86.3684 0.27122
-83.7739 0.274654
-81.1809 0.275119
-78.5898 0.277362
-76.0003 0.283767
-73.4124 0.302939
-70.8264 0.338305
-68.242 0.301053
-65.6593 0.355261
-63.0783 0.333712
-60.4991 0.361559
-57.9214 0.385293
-55.3455 0.352254
-52.7713 0.408125
-50.1988 0.45651
-47.6281 0.443567
-45.0589 0.450977
-42.4915 0.43737
-39.9257 0.486817
-37.3616 0.513324
-34.7993 0.515544
-32.2385 0.534675
-29.6795 0.513857
-27.1221 0.555779
-24.5666 0.556199
-22.0126 0.587322
-19.4602 0.604335
-16.9096 0.628775
-14.3606 0.678412
-11.8134 0.747046
-9.26774 0.804333
-6.72389 0.430056
-4.18161 0.163435
-1.64095 0.133153
0.897881 0.133716
3.43523 0.1343
5.97073 0.143399
8.50467 0.398727
11.0369 0.35212
13.5675 0.415617
16.0965 0.493999
18.6237 0.556312
21.1493 0.504552
23.6733 0.489211
26.1956 0.489945
28.7163 0.504432
31.2353 0.505791
33.7526 0.524164
36.2683 0.510388
38.7824 0.514767
41.2947 0.509638
43.8055 0.494125
46.3146 0.511148
48.8221 0.505902
51.3279 0.511629
53.832 0.553506
56.3346 0.535267
58.8355 0.536517
61.3347 0.532094
63.8323 0.524483
66.3283 0.513931
68.8227 0.49511
71.3154 0.483428
73.8064 0.498071
76.2958 0.453655
78.7837 0.450353
81.2698 0.379466
83.7544 0.356022
86.2373 0.358695
88.7186 0.272042
91.1983 0.266271
93.6763 0.29041
96.1528 0.302516
98.6275 0.264613
101.101 0.264293
103.572 0.285339
106.042 0.239581
108.511 0.245144
110.977 0.230766
113.442 0.265219
115.906 0.272595
118.368 0.311726
120.828 0.300379
123.287 0.319534
125.744 0.326041
128.199 0.319028
130.653 0.309929
133.105 0.302913
135.556 0.288795
138.005 0.2873
140.452 0.276055
142.898 0.262556
145.342 0.26328
147.785 0.258259
150.226 0.254723
152.665 0.24782
155.103 0.244554
157.54 0.243595
159.974 0.237516
162.407 0.236995
164.839 0.234793
167.269 0.232963
169.697 0.232179
172.124 0.227131
174.549 0.2257
176.972 0.227972
179.394 0.226816
181.815 0.228939
184.233 0.222721
186.651 0.226322
189.066 0.226889
191.48 0.223579
193.893 0.223514
196.304 0.221639
198.713 0.222046
201.121 0.21984
203.527 0.221048
205.932 0.220912
208.335 0.220538
210.736 0.218448
213.136 0.219918
215.535 0.214142
217.931 0.215042
220.327 0.209495
222.72 0.211616
225.112 0.209041
227.503 0.208561
229.892 0.204864
232.279 0.201964
234.665 0.2028
237.049 0.20097
239.432 0.199263
241.813 0.199775
244.193 0.195578
246.571 0.200106
248.948 0.194644
251.323 0.196561
253.696 0.195995
256.068 0.19703
258.439 0.196657
260.808 0.192843
263.175 0.194582
265.541 0.195451
267.905 0.191583
270.267 0.191616
272.629 0.190665
274.988 0.187892
277.346 0.185712
279.703 0.186152
282.058 0.18361
284.411 0.178272
286.763 0.180921
289.114 0.178085
291.462 0.179515
293.81 0.179957
296.156 0.180239
298.5 0.179924
300.843 0.174921
303.184 0.175924
305.524 0.175681
307.862 0.174205
310.199 0.173591
312.534 0.173251
314.867 0.171808
317.199 0.173947
319.53 0.17134
321.859 0.169207
324.187 0.169947
326.513 0.168654
328.837 0.168804
331.161 0.166574
333.482 0.169724
335.802 0.164937
338.121 0.168134
340.438 0.16333
342.753 0.163232
345.067 0.162441
347.38 0.162842
349.691 0.159851
352 0.163042
354.308 0.16076
356.615 0.160999
358.92 0.161987
361.223 0.159001
363.525 0.160092
365.826 0.161244
368.125 0.161701
370.423 0.160592
372.719 0.159961
375.013 0.161144
377.306 0.16003
379.598 0.160778
381.888 0.160549
384.177 0.1597
386.464 0.158725
388.749 0.158636
391.034 0.159568
393.316 0.162079
395.598 0.159693
397.877 0.163463
400.156 0.165384
402.433 0.164408
404.708 0.16556
406.982 0.165124
409.254 0.16781
411.525 0.170786
413.795 0.171516
416.062 0.172425
418.329 0.168863
420.594 0.163661
422.858 0.1653
425.12 0.164142
427.38 0.163428
429.64 0.163892
431.897 0.163484
434.154 0.161703
436.408 0.162954
438.662 0.16164
440.914 0.162855
443.164 0.16275
445.413 0.160511
447.661 0.160463
449.907 0.158832
452.151 0.158848
454.394 0.158329
456.636 0.159523
458.876 0.155804
461.115 0.154922
463.353 0.157017
465.589 0.151785
467.823 0.150528
470.056 0.152605
472.288 0.15115
474.518 0.150683
476.747 0.149658
478.974 0.145475
481.2 0.147007
483.424 0.148202
485.647 0.145125
487.869 0.146967
490.089 0.145483
492.308 0.145012
494.525 0.143842
496.741 0.147694
498.955 0.144716
501.168 0.143232
503.379 0.145587
505.59 0.144322
507.798 0.142938
510.006 0.143175
512.211 0.143371
514.416 0.140657
516.619 0.143352
518.82 0.145829
521.021 0.145051
523.219 0.143325
525.417 0.144387
527.613 0.143916
529.807 0.146045
532 0.144442
534.192 0.145545
536.382 0.144997
538.571 0.142499
540.758 0.143205
542.944 0.144973
545.129 0.145146
547.312 0.144796
549.494 0.144905
551.674 0.145481
553.854 0.143042
556.031 0.144571
558.207 0.145555
560.382 0.144335
562.556 0.14221
564.728 0.142406
566.898 0.14271
569.067 0.141855
571.235 0.138696
573.402 0.141143
575.567 0.141919
577.73 0.140019
579.893 0.139874
582.054 0.140166
584.213 0.139957
586.371 0.137904
588.528 0.137763
590.683 0.138997
592.837 0.141494
594.99 0.141101
597.141 0.141347
599.291 0.13986
601.439 0.140877
603.586 0.139985
605.732 0.13948
607.876 0.142522
610.019 0.142495
612.161 0.143102
614.301 0.151219
616.44 0.157092
618.577 0.166311
620.713 0.167897
622.848 0.166302
624.981 0.15658
627.113 0.147601
629.244 0.139686
631.373 0.137033
633.501 0.13635
635.627 0.135306
637.752 0.134197
639.876 0.133921
641.998 0.134121
644.119 0.132878
646.239 0.131645
648.358 0.129827
650.475 0.131023
652.59 0.125473
654.704 0.127874
656.817 0.1292
658.929 0.127757
661.039 0.128624
663.148 0.126322
665.255 0.126121
667.362 0.124601
669.466 0.125465
671.57 0.12684
673.672 0.126542
675.773 0.124222
677.872 0.123621
679.97 0.126456
682.067 0.127215
684.163 0.124814
686.257 0.126109
688.349 0.126995
690.441 0.127357
692.531 0.128511
694.62 0.123237
696.707 0.123754
698.793 0.123786
700.878 0.123568
702.961 0.123085
705.043 0.12444
707.124 0.122573
709.204 0.123831
711.282 0.123363
713.358 0.123205
715.434 0.120003
717.508 0.122849
719.581 0.122277
721.652 0.122699
723.722 0.120163
725.791 0.122464
727.859 0.124327
729.925 0.122462
731.99 0.122844
734.053 0.127252
736.116 0.126947
738.177 0.129027
740.236 0.129958
742.295 0.132197
744.352 0.135291
746.407 0.13474
748.462 0.135985
750.515 0.131964
752.567 0.130998
754.617 0.133301
756.666 0.134154
758.714 0.132237
760.76 0.129671
762.806 0.131795
764.85 0.129179
766.892 0.131781
768.934 0.129067
770.974 0.131283
773.012 0.127232
775.05 0.128128
777.086 0.126431
779.121 0.125152
781.155 0.123939
783.187 0.124645
785.218 0.125456
787.248 0.124787
789.276 0.125154
791.303 0.122883
793.329 0.125038
795.353 0.123566
797.377 0.121749
799.399 0.123085
801.419 0.122637
803.439 0.119543
805.457 0.122713
807.474 0.124417
809.489 0.123699
811.504 0.121079
813.517 0.120574
815.528 0.121978
817.539 0.122561
819.548 0.123549
821.556 0.121522
823.563 0.124227
825.568 0.121549
827.572 0.120982
829.575 0.119763
831.577 0.120338
833.577 0.119149
835.576 0.118838
837.574 0.118411
839.57 0.119783
841.565 0.119238
843.559 0.119691
845.552 0.118973
847.543 0.11779
849.534 0.120143
851.523 0.115136
853.51 0.115823
855.497 0.117334
857.482 0.114945
859.466 0.116639
861.448 0.115752
863.43 0.1131
865.41 0.116563
867.389 0.114541
869.366 0.115954
871.343 0.115998
873.318 0.115005
875.292 0.113258
877.264 0.112657
879.236 0.109407
881.206 0.112492
883.175 0.113539
885.143 0.113683
887.109 0.111131
889.074 0.112343
891.038 0.110383
893.001 0.113356
894.962 0.112455
896.922 0.113398
898.881 0.109687
900.839 0.111619
902.796 0.110561
904.751 0.113006
906.705 0.114201
908.658 0.111702
910.609 0.112676
912.56 0.113734
914.509 0.111528
916.457 0.111178
918.403 0.112419
920.349 0.108904
922.293 0.109279
924.236 0.108909
926.178 0.107848
928.118 0.108493
930.058 0.109079
931.996 0.110783
933.933 0.105762
935.868 0.108374
937.803 0.107386
939.736 0.107911
941.668 0.107302
943.599 0.108764
945.528 0.106203
947.457 0.109481
949.384 0.107229
951.31 0.108224
953.234 0.110227
955.158 0.107335
957.08 0.105585
959.001 0.108366
960.921 0.109075
962.84 0.107988
964.757 0.110289
966.674 0.107317
968.589 0.109106
970.503 0.110678
972.415 0.110705
974.327 0.113034
976.237 0.11273
978.146 0.114888
980.054 0.112729
981.961 0.116881
983.866 0.120724
985.77 0.124934
987.673 0.128419
989.575 0.135507
991.476 0.139741
993.375 0.147869
995.274 0.163632
997.171 0.195341
999.067 0.23261
1000.96 0.259565
1002.85 0.264269
1004.74 0.242616
1006.63 0.202222
1008.52 0.162165
1010.41 0.14193
1012.3 0.124157
1014.19 0.117477
1016.07 0.117691
1017.96 0.114176
1019.84 0.116935
1021.72 0.118294
1023.6 0.123837
1025.48 0.127609
1027.36 0.13658
1029.24 0.147923
1031.11 0.152482
1032.99 0.153177
1034.86 0.147137
1036.73 0.137729
1038.6 0.130201
1040.47 0.123831
1042.34 0.115969
1044.21 0.116014
1046.08 0.111883
1047.94 0.110766
1049.81 0.108805
1051.67 0.110731
1053.53 0.109951
1055.39 0.109248
1057.25 0.107845
1059.11 0.10833
1060.97 0.10769
1062.82 0.110872
1064.68 0.110923
1066.53 0.109429
1068.38 0.110252
1070.24 0.111367
1072.09 0.109233
1073.94 0.112331
1075.78 0.110567
1077.63 0.112569
1079.48 0.112597
1081.32 0.109696
1083.16 0.110838
1085.01 0.109857
1086.85 0.108525
1088.69 0.110296
1090.53 0.112389
1092.36 0.108666
1094.2 0.112459
1096.03 0.109518
1097.87 0.109817
1099.7 0.109605
1101.53 0.109528
1103.36 0.108673
1105.19 0.110954
1107.02 0.106152
1108.85 0.107174
1110.68 0.10379
1112.5 0.10239
1114.32 0.100708
1116.15 0.101734
1117.97 0.100965
1119.79 0.101737
1121.61 0.0974299
1123.43 0.097723
1125.24 0.0969965
1127.06 0.0977518
1128.88 0.0973846
1130.69 0.096035
1132.5 0.0946412
1134.31 0.0961275
1136.12 0.0939023
1137.93 0.0962726
1139.74 0.0967799
1141.55 0.0986136
1143.35 0.0963714
1145.16 0.0966532
1146.96 0.0957623
1148.76 0.100325
1150.57 0.102616
1152.37 0.107601
1154.17 0.113459
1155.96 0.114129
1157.76 0.117259
1159.56 0.117878
1161.35 0.111449
1163.14 0.109395
1164.94 0.105505
1166.73 0.104404
1168.52 0.102512
1170.31 0.102754
1172.1 0.106174
1173.88 0.104878
1175.67 0.109683
1177.45 0.112319
1179.24 0.115343
1181.02 0.120578
1182.8 0.124846
1184.58 0.128164
1186.36 0.127849
1188.14 0.123791
1189.92 0.124029
1191.69 0.12302
1193.47 0.125633
1195.24 0.126813
1197.01 0.127626
1198.78 0.130131
1200.55 0.129588
1202.32 0.126467
1204.09 0.122075
1205.86 0.121595
1207.63 0.117691
1209.39 0.11534
1211.15 0.108997
1212.92 0.108685
1214.68 0.108088
1216.44 0.103826
1218.2 0.104294
1219.96 0.100569
1221.72 0.103993
1223.47 0.100014
1225.23 0.100786
1226.98 0.0983826
1228.73 0.0959475
1230.49 0.0982829
1232.24 0.0954117
1233.99 0.0942674
1235.73 0.096766
1237.48 0.0959266
1239.23 0.0950709
1240.97 0.0960661
1242.72 0.0949478
1244.46 0.094492
1246.2 0.0942478
1247.95 0.094642
1249.69 0.095744
1251.43 0.095705
1253.16 0.0954781
1254.9 0.0945558
1256.64 0.0974188
1258.37 0.095396
1260.1 0.0948801
1261.84 0.0990531
1263.57 0.0982775
1265.3 0.0976437
1267.03 0.099157
1268.76 0.0983677
1270.48 0.0960573
1272.21 0.0992025
1273.94 0.100256
1275.66 0.0975523
1277.38 0.100698
1279.1 0.100238
1280.83 0.0979189
1282.55 0.0999116
1284.26 0.100992
1285.98 0.0992585
1287.7 0.10063
1289.41 0.100253
1291.13 0.102111
1292.84 0.102232
1294.56 0.105668
1296.27 0.102341
1297.98 0.104922
1299.69 0.105019
1301.39 0.107937
1303.1 0.10597
1304.81 0.107867
1306.51 0.109002
1308.22 0.108258
1309.92 0.106562
1311.62 0.106008
1313.32 0.108189
1315.02 0.105158
1316.72 0.103622
1318.42 0.105382
1320.12 0.104717
1321.81 0.102679
1323.51 0.103941
1325.2 0.103502
1326.89 0.106414
1328.59 0.102322
1330.28 0.100383
1331.97 0.10368
1333.66 0.101528
1335.34 0.100745
1337.03 0.0987366
1338.71 0.100923
1340.4 0.0974716
1342.08 0.09853
1343.76 0.0993089
1345.45 0.100585
1347.13 0.0999429
1348.81 0.0973026
1350.48 0.0960689
1352.16 0.0948407
1353.84 0.0931519
1355.51 0.0926741
1357.19 0.0928702
1358.86 0.0926422
1360.53 0.0925623
1362.2 0.0916472
1363.87 0.0933231
1365.54 0.0922049
1367.21 0.0906319
1368.88 0.0929686
1370.54 0.0888671
1372.21 0.090254
1373.87 0.0915164
1375.54 0.0877753
1377.2 0.0882783
1378.86 0.0873819
1380.52 0.0859155
1382.18 0.0864154
1383.83 0.0846014
1385.49 0.0852772
1387.15 0.0836809
1388.8 0.0848444
1390.46 0.0838904
1392.11 0.0828566
1393.76 0.0802188
1395.41 0.0833832
1397.06 0.0854672
1398.71 0.0837011
1400.36 0.0834089
1402.01 0.0819515
1403.65 0.0834511
1405.3 0.083786
1406.94 0.0845572
1408.58 0.0834703
1410.22 0.0849181
1411.87 0.0850427
1413.51 0.0821403
1415.14 0.0843759
1416.78 0.0814099
1418.42 0.0860636
1420.05 0.0848684
1421.69 0.0859091
1423.32 0.0845644
1424.96 0.0851414
1426.59 0.0848052
1428.22 0.0863281
1429.85 0.087474
1431.48 0.0895603
1433.11 0.0892456
1434.73 0.0931655
1436.36 0.095938
1437.98 0.0988318
1439.61 0.0955018
1441.23 0.097473
1442.85 0.100184
1444.47 0.101278
1446.09 0.103021
1447.71 0.103774
1449.33 0.107055
1450.95 0.107917
1452.56 0.104424
1454.18 0.102238
1455.79 0.104583
1457.41 0.0986649
1459.02 0.0921103
1460.63 0.0898616
1462.24 0.0885186
1463.85 0.0862963
1465.46 0.0837308
1467.07 0.084981
1468.67 0.0775819
1470.28 0.0823116
1471.88 0.0802427
1473.49 0.0832082
1475.09 0.0807219
1476.69 0.0793904
1478.29 0.0797558
1479.89 0.0784699
1481.49 0.0807601
1483.09 0.0786297
1484.68 0.0810578
1486.28 0.0785787
1487.87 0.0794496
1489.47 0.0789268
1491.06 0.0759525
1492.65 0.0760275
1494.24 0.0790106
1495.83 0.0787204
1497.42 0.0766229
1499.01 0.0782613
1500.6 0.0804942
1502.18 0.0791146
1503.77 0.0760373
1505.35 0.0771941
1506.93 0.075879
1508.52 0.0753683
1510.1 0.0790139
1511.68 0.0777547
1513.26 0.0774957
1514.84 0.0759218
1516.41 0.0764342
1517.99 0.0781925
1519.57 0.0744587
1521.14 0.0780075
1522.71 0.0762986
1524.29 0.0726246
1525.86 0.0760437
1527.43 0.074519
1529 0.0749868
1530.57 0.074938
1532.14 0.0763415
1533.7 0.0750507
1535.27 0.0731027
1536.84 0.0752492
1538.4 0.077988
1539.96 0.0776331
1541.53 0.0781462
1543.09 0.0783463
1544.65 0.0750249
1546.21 0.0744419
1547.77 0.0747078
1549.32 0.0725432
1550.88 0.0736416
1552.44 0.0753861
1553.99 0.074215
1555.54 0.0710347
1557.1 0.0755398
1558.65 0.0751304
1560.2 0.0739667
1561.75 0.0770769
1563.3 0.0742238
1564.85 0.0726437
1566.4 0.0753596
1567.94 0.075126
1569.49 0.0712873
1571.03 0.0751368
1572.58 0.0790947
1574.12 0.0787657
1575.66 0.0795865
1577.2 0.0782273
1578.74 0.0857212
1580.28 0.0918491
1581.82 0.0939249
1583.36 0.0911909
1584.89 0.0928824
1586.43 0.0901647
1587.96 0.0904742
1589.5 0.0873319
1591.03 0.0825043
1592.56 0.0854916
1594.09 0.0875119
1595.62 0.0926558
1597.15 0.0993468
1598.68 0.105623
1600.21 0.115999
1601.73 0.121294
1603.26 0.123785
1604.78 0.120316
1606.3 0.110508
1607.83 0.108463
1609.35 0.091145
1610.87 0.0876764
1612.39 0.0824059
1613.91 0.0826725
1615.43 0.0775289
1616.94 0.0746083
1618.46 0.0751982
1619.97 0.0751982
1621.49 0.0718152
1623 0.0758795
1624.52 0.072928
1626.03 0.0744631
1627.54 0.0737297
1629.05 0.0742726
1630.56 0.0737313
1632.06 0.069416
1633.57 0.0705046
1635.08 0.0731177
1636.58 0.0719735
1638.09 0.0733896
1639.59 0.0743386
1641.09 0.0753404
1642.6 0.0721661
1644.1 0.0749433
1645.6 0.0733512
1647.1 0.0735541
1648.59 0.0744454
1650.09 0.0725757
1651.59 0.0752691
1653.08 0.0744606
1654.58 0.0744523
1656.07 0.0797577
1657.56 0.0728776
1659.06 0.0746711
1660.55 0.0769638
1662.04 0.0772531
1663.53 0.0760892
1665.02 0.0785467
1666.5 0.0780212
1667.99 0.0809887
1669.47 0.0816517
1670.96 0.0796356
1672.44 0.0751974
1673.93 0.0725387
1675.41 0.0701201
1676.89 0.0688574
1678.37 0.0687013
1679.85 0.0672105
1681.33 0.0641869
1682.81 0.0665992
1684.28 0.0667764
1685.76 0.0660727
1687.23 0.0644059
1688.71 0.0634074
1690.18 0.0655539
1691.65 0.0651168
1693.13 0.0622968
1694.6 0.0632991
1696.07 0.062665
1697.54 0.0655244
1699 0.0669172
1700.47 0.0645934
1701.94 0.0651928
1703.4 0.0638856
1704.87 0.0647554
1706.33 0.0668095
1707.79 0.0635727
1709.26 0.0623806
1710.72 0.0611007
1712.18 0.0639764
1713.64 0.0640302
1715.1 0.0613257
1716.55 0.0635807
1718.01 0.063719
1719.47 0.0650449
1720.92 0.0617106
1722.38 0.0633915
1723.83 0.0606264
1725.28 0.0617383
1726.73 0.0634348
1728.18 0.0631497
1729.63 0.0631947
1731.08 0.0611468
1732.53 0.0626857
1733.98 0.0599552
1735.43 0.0637641
1736.87 0.0598408
1738.32 0.0612309
1739.76 0.0606351
1741.2 0.0636023
1742.64 0.0604176
1744.09 0.0601196
1745.53 0.0598574
1746.97 0.0591344
1748.4 0.0608966
1749.84 0.0592146
1751.28 0.0618888
1752.72 0.059458
1754.15 0.061131
1755.59 0.0616577
1757.02 0.0614328
1758.45 0.0587654
1759.88 0.0599531
1761.32 0.0622944
1762.75 0.0582538
1764.18 0.0602967
1765.6 0.0637767
1767.03 0.0610177
1768.46 0.0608322
1769.88 0.0612642
1771.31 0.0597142
1772.73 0.060335
1774.16 0.0591076
1775.58 0.0595341
1777 0.0604726
1778.42 0.0575983
1779.84 0.0575035
1781.26 0.0579802
1782.68 0.0600526
1784.1 0.0593217
1785.52 0.0586768
1786.93 0.0575417
1788.35 0.0585007
1789.76 0.0584126
1791.17 0.0618047
1792.59 0.0572545
1794 0.0574169
1795.41 0.0590125
1796.82 0.0600267
1798.23 0.0614626
1799.64 0.059721
1801.05 0.061084
1802.45 0.060619
1803.86 0.0604241
1805.26 0.0610079
1806.67 0.0611989
1808.07 0.0590197
1809.47 0.0587442
1810.88 0.0580829
1812.28 0.0572815
1813.68 0.0553207
1815.08 0.0567105
1816.47 0.0572336
1817.87 0.0624477
1819.27 0.0563236
1820.66 0.0605725
1822.06 0.0595384
1823.45 0.0528239
1824.85 0.0602757
1826.24 0.0581399
1827.63 0.0584296
1829.02 0.0585006
1830.41 0.0573054
1831.8 0.0604239
1833.19 0.0574155
1834.58 0.0569801
1835.97 0.0572864
1837.35 0.0556817
1838.74 0.0567664
1840.12 0.0561971
1841.51 0.0545631
1842.89 0.056588
1844.27 0.0558249
1845.65 0.0537725
1847.03 0.0567924
1848.41 0.0566464
1849.79 0.0550893
1851.17 0.0547355
1852.55 0.0575555
1853.92 0.056136
1855.3 0.05401
1856.67 0.0537295
1858.05 0.0512891
1859.42 0.0529366
1860.79 0.0544192
1862.16 0.0549607
1863.53 0.0514368
1864.9 0.0562176
1866.27 0.0552049
1867.64 0.0538977
1869.01 0.0565976
1870.38 0.0534776
1871.74 0.0551441
1873.11 0.0573708
1874.47 0.0525817
1875.84 0.0539044
1877.2 0.0514451
1878.56 0.0526874
1879.92 0.0513082
1881.28 0.0546517
1882.64 0.0504704
1884 0.0568166
1885.36 0.0537229
1886.71 0.0542146
1888.07 0.053696
1889.43 0.0530944
1890.78 0.0554031
1892.13 0.0537887
1893.49 0.053899
1894.84 0.0541521
1896.19 0.0550727
1897.54 0.0540166
1898.89 0.0504386
1900.24 0.0541051
1901.59 0.0540781
1902.94 0.0504784
1904.28 0.0520218
1905.63 0.0536757
1906.97 0.05566
1908.32 0.0517195
1909.66 0.0528898
1911.01 0.0528104
1912.35 0.052159
1913.69 0.0492384
1915.03 0.0519884
1916.37 0.0535122
1917.71 0.0542031
1919.05 0.0511712
1920.38 0.0563785
1921.72 0.0521411
1923.06 0.0513889
1924.39 0.0541345
1925.72 0.0538481
1927.06 0.0510911
1928.39 0.0512465
1929.72 0.0544221
1931.05 0.0530068
1932.38 0.0541581
1933.71 0.0541148
1935.04 0.0523212
1936.37 0.0517027
1937.7 0.0515538
1939.02 0.052804
1940.35 0.0540041
1941.67 0.0532833
1943 0.0517196
1944.32 0.0513495
1945.64 0.0557915
1946.96 0.05294
1948.28 0.0494445
1949.6 0.0519208
1950.92 0.0526781
1952.24 0.0481968
1953.56 0.0475377
1954.88 0.0480192
1956.19 0.0508009
1957.51 0.049055
1958.82 0.0460896
1960.14 0.0480756
1961.45 0.0471169
1962.76 0.0513785
1964.07 0.0491969
1965.39 0.0485992
1966.7 0.0514594
1968.01 0.0476393
1969.31 0.0509514
1970.62 0.0492848
1971.93 0.048241
1973.23 0.0489556
1974.54 0.0500989
1975.84 0.0507192
1977.15 0.048725
1978.45 0.0516877
1979.75 0.0499616
1981.06 0.0512845
1982.36 0.0498167
1983.66 0.0499686
1984.96 0.0474786
1986.25 0.0510708
1987.55 0.0457726
1988.85 0.0491067
1990.15 0.0487739
1991.44 0.0480921
1992.74 0.0490641
1994.03 0.0494405
1995.32 0.049089
1996.62 0.0491288
1997.91 0.047696
1999.2 0.0455241
2000.49 0.0460696
2001.78 0.0500597
2003.07 0.0486875
2004.36 0.0476893
2005.64 0.0483341
2006.93 0.0485116
2008.21 0.0462728
2009.5 0.0469879
2010.78 0.044757
2012.07 0.0447425
2013.35 0.0467259
2014.63 0.0487061
2015.91 0.0463252
2017.19 0.0469229
2018.47 0.0448501
2019.75 0.0458545
2021.03 0.0457869
2022.31 0.0464974
2023.58 0.0489421
2024.86 0.0453804
2026.14 0.044761
2027.41 0.045458
2028.68 0.042001
2029.96 0.0473559
2031.23 0.0441107
2032.5 0.0447706
2033.77 0.0452538
2035.04 0.0451652
2036.31 0.0468963
2037.58 0.045593
2038.85 0.044094
2040.11 0.0458812
2041.38 0.0428489
2042.64 0.0452802
2043.91 0.0482911
2045.17 0.0474262
2046.44 0.0466655
2047.7 0.0495674
2048.96 0.0460786
2050.22 0.045607
2051.48 0.0446712
2052.74 0.0444441
2054 0.0449275
2055.26 0.0454277
2056.52 0.0418681
2057.77 0.0429335
2059.03 0.0463014
2060.28 0.0476989
2061.54 0.0447154
2062.79 0.0441464
2064.05 0.043508
2065.3 0.044644
2066.55 0.0441788
2067.8 0.0419409
2069.05 0.0449013
2070.3 0.0450662
2071.55 0.0421392
2072.8 0.0431493
2074.04 0.0447
2075.29 0.0461828
2076.53 0.0443074
2077.78 0.0439388
2079.02 0.0425983
2080.27 0.0451585
2081.51 0.0438625
2082.75 0.0465707
2083.99 0.0439002
2085.23 0.044518
2086.47 0.0440346
2087.71 0.0434552
2088.95 0.0451718
2090.19 0.0411528
2091.42 0.0423999
2092.66 0.046037
2093.9 0.0442753
2095.13 0.0448224
2096.37 0.0439826
2097.6 0.0438809
2098.83 0.0476475
2100.06 0.0421067
2101.29 0.0458561
2102.52 0.0420457
2103.75 0.0420254
2104.98 0.0432314
2106.21 0.0429271
2107.44 0.0440754
2108.67 0.0442283
2109.89 0.0424221
2111.12 0.0431227
2112.34 0.0451487
2113.57 0.0452445
2114.79 0.0439348
2116.01 0.0462639
2117.23 0.040313
2118.45 0.0476873
2119.67 0.0414865
2120.89 0.0420891
2122.11 0.0446315
2123.33 0.0459947
2124.55 0.0430757
2125.76 0.0443148
2126.98 0.0452696
2128.2 0.0403674
2129.41 0.0442943
2130.62 0.0422396
2131.84 0.0445351
2133.05 0.0464029
2134.26 0.0432413
2135.47 0.0436554
2136.68 0.0424483
2137.89 0.0433549
2139.1 0.0428562
2140.31 0.0394445
2141.52 0.0423258
2142.72 0.0438612
2143.93 0.041972
2145.14 0.0419982
2146.34 0.0419917
2147.54 0.039563
2148.75 0.0434011
2149.95 0.0436459
2151.15 0.042495
2152.35 0.0423849
2153.55 0.0439751
2154.75 0.0399212
2155.95 0.0422434
2157.15 0.040757
2158.35 0.0444946
2159.54 0.0432864
2160.74 0.0417052
2161.94 0.0466872
2163.13 0.0409026
2164.32 0.0427359
2165.52 0.0417144
2166.71 0.0421983
2167.9 0.0442642
2169.09 0.0435454
2170.28 0.0447047
2171.47 0.041255
2172.66 0.0426918
2173.85 0.0405146
2175.04 0.0395223
2176.23 0.0413441
2177.41 0.0449335
2178.6 0.0428643
2179.78 0.043667
2180.97 0.0438522
2182.15 0.0419151
2183.33 0.0411318
2184.52 0.0392923
2185.7 0.0363792
2186.88 0.0440467
2188.06 0.0398656
2189.24 0.0406316
2190.42 0.0456358
2191.59 0.0434944
2192.77 0.0400817
2193.95 0.0413974
2195.12 0.0434705
2196.3 0.0439385
2197.47 0.0406827
2198.65 0.042997
2199.82 0.0427423
2200.99 0.0436997
2202.17 0.0416838
2203.34 0.0406793
2204.51 0.0430147
2205.68 0.0422771
2206.85 0.0412069
2208.01 0.0427795
2209.18 0.0415698
2210.35 0.0460055
2211.51 0.0411914
2212.68 0.0423717
2213.84 0.0428801
2215.01 0.0444517
2216.17 0.0429992
2217.34 0.0439822
2218.5 0.0439395
2219.66 0.0463481
2220.82 0.0468767
2221.98 0.0440807
2223.14 0.0436397
2224.3 0.0495086
2225.46 0.0485702
2226.61 0.0520818
2227.77 0.0522348
2228.93 0.0566033
2230.08 0.0636282
2231.24 0.0672651
2232.39 0.0723899
2233.54 0.0823951
2234.7 0.089523
2235.85 0.0964649
2237 0.104235
2238.15 0.110629
2239.3 0.105859
2240.45 0.104124
2241.6 0.102699
2242.74 0.0942521
2243.89 0.0887012
2245.04 0.0870016
2246.18 0.0752603
2247.33 0.0681297
2248.47 0.0662124
2249.62 0.0606352
2250.76 0.0578408
2251.9 0.0525721
2253.04 0.0510225
2254.18 0.0532231
2255.32 0.0471961
2256.46 0.0474724
2257.6 0.0480405
2258.74 0.0469722
2259.88 0.0448799
2261.02 0.0467068
2262.15 0.0388427
2263.29 0.0432023
2264.42 0.0404193
2265.56 0.0423695
2266.69 0.0429132
2267.82 0.0387004
2268.96 0.0410191
2270.09 0.0407818
2271.22 0.0401619
2272.35 0.0394208
2273.48 0.0415523
2274.61 0.0423079
2275.74 0.0431424
2276.86 0.0393221
2277.99 0.0395455
2279.12 0.0445227
2280.24 0.0393608
2281.37 0.0370375
2282.49 0.0387993
2283.61 0.0406283
2284.74 0.0410385
2285.86 0.0411851
2286.98 0.0405158
2288.1 0.0386823
2289.22 0.0381066
2290.34 0.0396551
2291.46 0.0387757
2292.58 0.0425955
2293.7 0.038734
2294.81 0.0410059
2295.93 0.0409459
2297.04 0.0445057
2298.16 0.0414579
2299.27 0.0399769
2300.39 0.0372381
2301.5 0.0430236
2302.61 0.03844
2303.72 0.0352613
2304.83 0.040271
2305.94 0.0412941
2307.05 0.0408335
2308.16 0.0396437
2309.27 0.0415126
2310.38 0.041546
2311.49 0.0385301
2312.59 0.0396915
2313.7 0.0396259
2314.8 0.0367974
2315.91 0.0380325
2317.01 0.0372432
2318.11 0.039847
2319.21 0.0406083
2320.32 0.0399125
2321.42 0.0415138
2322.52 0.0346865
2323.62 0.0371356
2324.72 0.0384696
2325.81 0.038185
2326.91 0.0394127
2328.01 0.0439346
2329.11 0.0354163
2330.2 0.0380891
2331.3 0.0383351
2332.39 0.0374229
2333.48 0.0379428
2334.58 0.0413161
2335.67 0.0366054
2336.76 0.0372447
2337.85 0.0419105
2338.94 0.0375681
2340.03 0.0420611
2341.12 0.0373002
2342.21 0.0381581
2343.3 0.0386374
2344.39 0.0361285
2345.47 0.0357342
2346.56 0.0363616
2347.64 0.0345499
2348.73 0.0392501
2349.81 0.0378102
2350.9 0.0410076
2351.98 0.0364822
2353.06 0.0405943
2354.14 0.0386533
2355.22 0.0363415
2356.3 0.0392382
2357.38 0.0385777
2358.46 0.0388575
2359.54 0.0340765
2360.61 0.0383603
2361.69 0.0398939
2362.77 0.0389506
2363.84 0.0377929
2364.92 0.039363
2365.99 0.0366884
2367.07 0.0363789
2368.14 0.0418093
2369.21 0.0383583
2370.28 0.0387928
2371.35 0.0372211
2372.42 0.0375244
2373.49 0.0409242
2374.56 0.0398155
2375.63 0.0337704
2376.7 0.0376385
2377.77 0.0379096
2378.83 0.0384401
2379.9 0.0387289
2380.96 0.0393845
2382.03 0.0364337
2383.09 0.0385122
2384.15 0.0365412
2385.22 0.0353412
2386.28 0.0374336
2387.34 0.0364922
2388.4 0.0407421
2389.46 0.0368369
2390.52 0.0416277
2391.58 0.0373016
2392.64 0.0363466
2393.69 0.0366023
2394.75 0.0379461
2395.81 0.0406856
2396.86 0.0399229
2397.92 0.036797
2398.97 0.0358157
2400.02 0.037014
2401.08 0.038874
2402.13 0.0363236
2403.18 0.0361
2404.23 0.0404069
2405.28 0.0397326
2406.33 0.0417157
2407.38 0.0356972
2408.43 0.0358867
2409.48 0.0384579
2410.52 0.041603
2411.57 0.0379142
2412.62 0.032679
2413.66 0.0385269
2414.71 0.035795
2415.75 0.0383442
2416.79 0.0349182
2417.84 0.0348488
2418.88 0.0362786
2419.92 0.0385024
2420.96 0.0376464
2422 0.0371575
2423.04 0.038616
2424.08 0.0353875
2425.12 0.0454367
2426.16 0.0404289
2427.19 0.0286955
2428.23 0.0394705
2429.26 0.0368067
2430.3 0.0414615
2431.33 0.0383129
2432.37 0.0378031
2433.4 0.0365886
2434.43 0.0378508
2435.46 0.0378158
2436.5 0.0375638
2437.53 0.0381351
2438.56 0.039134
2439.59 0.0341961
2440.61 0.0399423
2441.64 0.0425234
2442.67 0.0362103
2443.7 0.0323429
2444.72 0.0401051
2445.75 0.0406601
2446.77 0.0400435
2447.8 0.0368211
2448.82 0.044456
2449.84 0.0357195
2450.87 0.0409576
2451.89 0.0349368
2452.91 0.0365502
2453.93 0.0366166
2454.95 0.0383911
2455.97 0.0361181
2456.99 0.0417754
2458.01 0.0347403
2459.02 0.0409583
2460.04 0.0356583
2461.06 0.0351494
2462.07 0.0382147
2463.09 0.0377607
2464.1 0.0360514
2465.11 0.0343426
2466.13 0.0353933
2467.14 0.0383702
2468.15 0.0372211
2469.16 0.0336815
2470.17 0.0399581
2471.18 0.0408049
2472.19 0.0408533
2473.2 0.0354529
2474.21 0.0365874
2475.22 0.0362497
2476.22 0.0357469
2477.23 0.0326558
2478.23 0.03501
2479.24 0.0339748
2480.24 0.0353302
2481.25 0.0373196
2482.25 0.0396658
2483.25 0.0387572
2484.25 0.0417558
2485.25 0.0378788
2486.25 0.0359824
2487.25 0.0393214
2488.25 0.0307462
2489.25 0.0406654
2490.25 0.034279
2491.25 0.036899
2492.24 0.0327969
2493.24 0.0340754
2494.23 0.0441317
2495.23 0.0394747
2496.22 0.0400617
2497.22 0.0344428
2498.21 0.0379999
2499.2 0.0385271
2500.19 0.0345389
2501.19 0.0374748
2502.18 0.0364078
2503.17 0.0391815
2504.15 0.041184
2505.14 0.0365783
2506.13 0.0427138
2507.12 0.0378882
2508.11 0.0365211
2509.09 0.0396491
2510.08 0.034284
2511.06 0.0342814
2512.05 0.032759
2513.03 0.0399586
2514.01 0.0372797
2515 0.033716
2515.98 0.032528
2516.96 0.0350145
2517.94 0.033119
2518.92 0.0369423
2519.9 0.0342012
2520.88 0.0381989
2521.85 0.0405497
2522.83 0.0337775
2523.81 0.0414553
2524.78 0.0377489
2525.76 0.0357323
2526.73 0.0381153
2527.71 0.0371408
2528.68 0.0331007
2529.66 0.0384462
2530.63 0.0327681
2531.6 0.0340874
2532.57 0.0358279
2533.54 0.0381739
2534.51 0.037307
2535.48 0.0402829
2536.45 0.037717
2537.42 0.036083
2538.39 0.0368422
2539.35 0.0360188
2540.32 0.0343644
2541.28 0.0324495
2542.25 0.0349385
2543.21 0.0379818
2544.18 0.0363944
2545.14 0.0314751
2546.1 0.0361963
2547.07 0.0343431
2548.03 0.0308323
2548.99 0.0301874
2549.95 0.0338819
2550.91 0.0347009
2551.87 0.0332753
2552.82 0.0376149
2553.78 0.0412135
2554.74 0.0373659
2555.7 0.0370629
2556.65 0.0348178
2557.61 0.0310368
2558.56 0.0300821
2559.52 0.0328608
2560.47 0.0334859
2561.42 0.0386681
2562.37 0.0365223
2563.32 0.0363692
2564.28 0.0404692
2565.23 0.0345871
2566.18 0.033387
2567.12 0.0388534
2568.07 0.0362382
2569.02 0.0372753
2569.97 0.0383688
2570.92 0.0360043
2571.86 0.040571
2572.81 0.0358503
2573.75 0.0398694
2574.7 0.035159
2575.64 0.0331852
2576.58 0.0367841
2577.52 0.0345714
2578.47 0.0354566
2579.41 0.0392363
2580.35 0.0386389
2581.29 0.0347604
2582.23 0.0313107
2583.17 0.0393839
2584.1 0.0347143
2585.04 0.0377116
2585.98 0.0387618
2586.91 0.0384044
2587.85 0.038436
2588.78 0.0380733
2589.72 0.0334558
2590.65 0.0339219
2591.58 0.0369345
2592.52 0.0410096
2593.45 0.0427488
2594.38 0.0394964
2595.31 0.0391288
2596.24 0.0354893
2597.17 0.0263572
2598.1 0.0428625
2599.03 0.0368179
2599.96 0.0310754
2600.88 0.0406361
2601.81 0.0380978
2602.74 0.0389696
2603.66 0.0356822
2604.58 0.0387183
2605.51 0.0411831
2606.43 0.0397223
2607.35 0.0424996
2608.28 0.0311501
2609.2 0.0386047
2610.12 0.0476146
2611.04 0.0420754
2611.96 0.0410456
2612.88 0.0386247
2613.8 0.0343163
2614.72 0.0275948
2615.63 0.0285343
2616.55 0.0363393
2617.47 0.0336648
2618.38 0.03754
2619.3 0.0410562
2620.21 0.0382198
2621.12 0.0446424
2622.04 0.0375809
2622.95 0.0360185
2623.86 0.035092
2624.77 0.036897
2625.68 0.0346988
2626.59 0.040118
2627.5 0.0347143
2628.41 0.0384778
2629.32 0.0353684
2630.23 0.0290585
2631.13 0.0329489
2632.04 0.0417692
2632.94 0.0380763
2633.85 0.0395781
2634.75 0.0347961
2635.66 0.0308749
2636.56 0.0433273
2637.46 0.0377467
2638.37 0.042706
2639.27 0.0362993
2640.17 0.0360501
2641.07 0.039525
2641.97 0.0307918
2642.87 0.0297562
2643.77 0.0327885
2644.66 0.0347984
2645.56 0.0347325
2646.46 0.0354056
2647.35 0.036026
2648.25 0.0348276
2649.14 0.0346794
2650.04 0.0420089
2650.93 0.0361761
2651.82 0.0323095
2652.72 0.0365827
2653.61 0.0413834
2654.5 0.034872
2655.39 0.0358331
2656.28 0.0318402
2657.17 0.0332609
2658.06 0.0392538
2658.95 0.0328589
2659.83 0.0324721
2660.72 0.0358924
2661.61 0.0378523
2662.49 0.0327044
2663.38 0.0263519
2664.26 0.0388137
2665.15 0.0331307
2666.03 0.0333951
2666.91 0.0350374
2667.79 0.0360048
2668.68 0.038928
2669.56 0.0400978
2670.44 0.0402062
2671.32 0.0392884
2672.2 0.0450675
2673.07 0.0345021
2673.95 0.0327743
2674.83 0.0337997
2675.71 0.0317286
2676.58 0.0388638
2677.46 0.0260063
2678.33 0.0362391
2679.21 0.0385762
2680.08 0.0370979
2680.95 0.0365697
2681.82 0.0321778
2682.7 0.0350458
2683.57 0.0333381
2684.44 0.0332007
2685.31 0.0349796
2686.18 0.0372685
2687.05 0.0380011
2687.91 0.0421513
2688.78 0.0397429
2689.65 0.0379356
2690.51 0.0370166
2691.38 0.0353771
2692.24 0.0340039
2693.11 0.0399151
2693.97 0.0379617
2694.84 0.0379852
2695.7 0.0376119
2696.56 0.0268572
2697.42 0.0341743
2698.28 0.0355134
2699.14 0.0353683
2700 0.0436765
2700.86 0.0487217
2701.72 0.0410916
2702.58 0.0365877
2703.44 0.0394606
2704.29 0.040524
2705.15 0.0378313
2706 0.0394674
2706.86 0.0394892
2707.71 0.0448244
2708.57 0.0392677
2709.42 0.0408376
2710.27 0.0332123
2711.12 0.0304444
2711.97 0.0278283
2712.83 0.0415658
2713.67 0.0365152
2714.52 0.0394222
2715.37 0.0299249
2716.22 0.0336468
2717.07 0.0380062
2717.92 0.0462672
2718.76 0.0365881
2719.61 0.0346193
2720.45 0.0306504
2721.3 0.0350711
2722.14 0.034071
2722.98 0.0277302
2723.83 0.0391587
2724.67 0.0330704
2725.51 0.0357465
2726.35 0.0437252
2727.19 0.0275889
2728.03 0.0386546
2728.87 0.0460795
2729.71 0.0410862
2730.55 0.0349486
2731.38 0.0402983
2732.22 0.037635
2733.06 0.0360947
2733.89 0.0393722
2734.73 0.0387374
2735.56 0.0350097
2736.39 0.0416
2737.23 0.0335354
2738.06 0.0281885
2738.89 0.0414857
2739.72 0.030975
2740.55 0.0344525
2741.38 0.0276381
2742.21 0.0296994
2743.04 0.0309366
2743.87 0.0318694
2744.7 0.0401873
2745.52 0.0345724
2746.35 0.0359953
2747.18 0.0331764
2748 0.0380109
2748.83 0.0399374
2749.65 0.0306714
2750.47 0.0279923
2751.3 0.0277409
2752.12 0.0365191
2752.94 0.0384556
2753.76 0.0256858
2754.58 0.0267079
2755.4 0.0352449
2756.22 0.0295592
2757.04 0.0350899
2757.85 0.0339316
2758.67 0.0283646
2759.49 0.0327828
2760.3 0.0287696
2761.12 0.0350272
2761.93 0.0295966
2762.75 0.0359278
2763.56 0.030748
2764.38 0.033245
2765.19 0.0340743
2766 0.0344295
2766.81 0.0281944
2767.62 0.037438
2768.43 0.0348783
2769.24 0.0357171
2770.05 0.0306548
2770.86 0.0379874
2771.66 0.0426787
2772.47 0.0437163
2773.28 0.0385843
2774.08 0.0408961
2774.89 0.0386433
2775.69 0.0436587
2776.5 0.0318888
2777.3 0.033949
2778.1 0.0443477
2778.9 0.0441467
2779.71 0.032833
2780.51 0.0292446
2781.31 0.0352445
2782.11 0.0288451
2782.91 0.0336713
2783.7 0.0430585
2784.5 0.0362975
2785.3 0.0386842
2786.1 0.0387354
2786.89 0.0360637
2787.69 0.0415835
2788.48 0.0407031
2789.28 0.0286513
2790.07 0.033689
2790.86 0.0248593
2791.65 0.0294138
2792.45 0.0233125
2793.24 0.026409
2794.03 0.0352378
2794.82 0.0458472
2795.61 0.038598
2796.39 0.0386905
2797.18 0.0242652
2797.97 0.03044
2798.76 0.0399737
2799.54 0.0488302
2800.33 0.0279437
2801.11 0.027803
2801.9 0.0428828
2802.68 0.025852
2803.46 0.0313361
2804.25 0.027102
2805.03 0.0296468
2805.81 0.028281
2806.59 0.0354773
2807.37 0.0410885
2808.15 0.0245013
2808.93 0.0365665
2809.71 0.0358289
2810.49 0.0321679
2811.26 0.034531
2812.04 0.0309056
2812.81 0.0498943
2813.59 0.0264361
2814.36 0.0274786
2815.14 0.0392062
2815.91 0.0424348
2816.68 0.0431224
2817.46 0.0341487
2818.23 0.0257495
2819 0.0406394
2819.77 0.039362
2820.54 0.0322682
2821.31 0.0524109
2822.08 0.0282308
2822.84 0.0361265
2823.61 0.0310217
2824.38 0.0388402
2825.14 0.0332932
2825.91 0.0395807
2826.67 0.0473321
2827.44 0.0528951
2828.2 0.029487
2828.96 0.0396842
2829.73 0.0450564
2830.49 0.0445962
2831.25 0.0296266
2832.01 0.0358217
2832.77 0.0587694
2833.53 0.0341236
2834.29 0.0527677
2835.05 0.0385875
2835.8 0.0409408
2836.56 0.0492082
2837.32 0.0551186
2838.07 0.0455541
2838.83 0.0547582
2839.58 0.0550275
2840.33 0.0429626
2841.09 0.0387125
2841.84 0.0542809
2842.59 0.0643159
2843.34 0.0736584
2844.09 0.0561152
2844.84 0.061352
2845.59 0.0654802
2846.34 0.0715161
2847.09 0.0675007
2847.84 0.0599854
2848.59 0.0714013
2849.33 0.070187
2850.08 0.0643763
2850.82 0.0559276
2851.57 0.0595408
2852.31 0.070046
2853.05 0.0701969
2853.8 0.0592651
2854.54 0.067868
2855.28 0.0783787
2856.02 0.0719825
2856.76 0.0733916
2857.5 0.0767733
2858.24 0.0639945
2858.98 0.083549
2859.72 0.0840946
2860.45 0.0650298
2861.19 0.0718656
2861.92 0.0830021
2862.66 0.0640547
2863.39 0.0694331
2864.13 0.0760066
2864.86 0.0791204
2865.59 0.0646986
2866.33 0.0836599
2867.06 0.0678238
2867.79 0.0769669
2868.52 0.0782865
2869.25 0.0714749
2869.98 0.0853717
2870.71 0.0673155
2871.43 0.063385
2872.16 0.0796366
2872.89 0.0843836
2873.61 0.0859762
2874.34 0.103445
2875.06 0.107658
2875.79 0.0995305
2876.51 0.118681
2877.23 0.124086
2877.96 0.102188
2878.68 0.104559
2879.4 0.121898
2880.12 0.109819
2880.84 0.10459
2881.56 0.107941
2882.28 0.103244
2882.99 0.099237
2883.71 0.0911031
2884.43 0.0956872
2885.14 0.120893
2885.86 0.097879
2886.57 0.0762328
2887.29 0.111955
2888 0.102825
2888.71 0.0933989
2889.43 0.103824
2890.14 0.106138
2890.85 0.0907101
2891.56 0.108945
2892.27 0.115697
2892.98 0.111271
2893.69 0.112852
2894.39 0.113801
2895.1 0.122452
2895.81 0.122763
2896.51 0.136616
2897.22 0.120925
2897.92 0.131643
2898.63 0.131511
2899.33 0.133749
2900.03 0.121164
2900.74 0.134505
2901.44 0.149947
2902.14 0.158478
2902.84 0.128773
2903.54 0.142604
2904.24 0.141763
2904.93 0.139803
spectrumdark 2048
-91.5628 2165
-88.9648 2189
-86.3684 1988
-83.7739 2085
-81.1809 1926
-78.5898 1924
-76.0003 1934
-73.4124 1981
-70.8264 1966
-68.242 1957
-65.6593 1917
-63.0783 1968
-60.4991 1942
-57.9214 2016
-55.3455 1979
-52.7713 1983
-50.1988 1897
-47.6281 1988
-45.0589 2005
-42.4915 1966
-39.9257 1999
-37.3616 1971
-34.7993 1929
-32.2385 1954
-29.6795 1969
-27.1221 1918
-24.5666 1962
-22.0126 1934
-19.4602 1960
-16.9096 1979
-14.3606 1965
-11.8134 1953
-9.26774 1973
-6.72389 1916
-4.18161 1935
-1.64095 1959
0.897881 1951
3.43523 1922
5.97073 1976
8.50467 2035
11.0369 1994
13.5675 1954
16.0965 1976
18.6237 1976
21.1493 1979
23.6733 1956
26.1956 1968
28.7163 1969
31.2353 1909
33.7526 2042
36.2683 2012
38.7824 2008
41.2947 1963
43.8055 1983
46.3146 1964
48.8221 1961
51.3279 1989
53.832 1946
56.3346 1982
58.8355 1973
61.3347 2002
63.8323 1962
66.3283 1956
68.8227 1945
71.3154 1962
73.8064 1989
76.2958 1924
78.7837 1981
81.2698 1954
83.7544 2052
86.2373 1982
88.7186 1977
91.1983 1990
93.6763 1968
96.1528 1956
98.6275 2021
101.101 2023
103.572 1980
106.042 1981
108.511 2028
110.977 1970
113.442 1963
115.906 2025
118.368 1995
120.828 2085
123.287 2088
125.744 2138
128.199 2242
130.653 2390
133.105 2703
135.556 2868
138.005 3133
140.452 3557
142.898 3789
145.342 3990
147.785 4132
150.226 4247
152.665 4227
155.103 4395
157.54 4388
159.974 4461
162.407 4487
164.839 4459
167.269 4411
169.697 4568
172.124 4418
174.549 4491
176.972 4554
179.394 4642
181.815 4733
184.233 5269
186.651 5371
189.066 5664
191.48 6184
193.893 6251
196.304 6543
198.713 6706
201.121 6993
203.527 6993
205.932 6983
208.335 7094
210.736 6961
213.136 6927
215.535 7026
217.931 7022
220.327 7069
222.72 7150
225.112 7122
227.503 7085
229.892 7165
232.279 7083
234.665 6885
237.049 6784
239.432 6782
241.813 6747
244.193 6934
246.571 6850
248.948 6956
251.323 6869
253.696 6774
256.068 6932
258.439 6736
260.808 6912
263.175 6914
265.541 6936
267.905 6849
270.267 7016
272.629 6872
274.988 6724
277.346 6757
279.703 6702
282.058 6737
284.411 6792
286.763 6768
289.114 7019
291.462 6884
293.81 6866
296.156 6908
298.5 6925
300.843 7086
303.184 6949
305.524 6912
307.862 6837
310.199 6779
312.534 7217
314.867 6938
317.199 6936
319.53 7018
321.859 7047
324.187 6967
326.513 7140
328.837 7288
331.161 7224
333.482 7255
335.802 7206
338.121 7073
340.438 7121
342.753 7073
345.067 7102
347.38 7005
349.691 6922
352 6871
354.308 7214
356.615 6940
358.92 6930
361.223 7036
363.525 6887
365.826 6988
368.125 6832
370.423 6713
372.719 6849
375.013 6831
377.306 6856
379.598 6885
381.888 6711
384.177 6723
386.464 6646
388.749 6776
391.034 6647
393.316 6587
395.598 6846
397.877 7149
400.156 7189
402.433 7335
404.708 7103
406.982 6916
409.254 7107
411.525 7970
413.795 8267
416.062 8186
418.329 7749
420.594 7135
422.858 6737
425.12 6554
427.38 6477
429.64 6447
431.897 6394
434.154 6466
436.408 6373
438.662 6382
440.914 6178
443.164 5860
445.413 5857
447.661 5890
449.907 6008
452.151 6112
454.394 6020
456.636 5766
458.876 5844
461.115 5800
463.353 5717
465.589 5588
467.823 5469
470.056 5529
472.288 5445
474.518 5507
476.747 5697
478.974 5595
481.2 5746
483.424 5711
485.647 5443
487.869 5219
490.089 4910
492.308 5185
494.525 5374
496.741 5307
498.955 5490
501.168 5600
503.379 5666
505.59 5977
507.798 5791
510.006 5265
512.211 5136
514.416 5104
516.619 5290
518.82 5514
521.021 5647
523.219 5852
525.417 5912
527.613 5901
529.807 5960
532 5890
534.192 5957
536.382 5749
538.571 5546
540.758 5493
542.944 5405
545.129 5427
547.312 5791
549.494 6256
551.674 6371
553.854 6454
556.031 6271
558.207 6150
560.382 5992
562.556 6011
564.728 5956
566.898 5999
569.067 6036
571.235 5985
573.402 5818
575.567 5796
577.73 5662
579.893 5525
582.054 5238
584.213 4725
586.371 4324
588.528 4260
590.683 4391
592.837 4685
594.99 5118
597.141 5457
599.291 5633
601.439 5770
603.586 5782
605.732 5833
607.876 5647
610.019 5806
612.161 5908
614.301 5924
616.44 6142
618.577 6179
620.713 6212
622.848 6057
624.981 5853
627.113 5741
629.244 5738
631.373 5592
633.501 5855
635.627 6027
637.752 6250
639.876 6320
641.998 6356
644.119 6242
646.239 6202
648.358 5969
650.475 5728
652.59 5584
654.704 5296
656.817 5333
658.929 5334
661.039 5416
663.148 5528
665.255 5561
667.362 5715
669.466 5857
671.57 5685
673.672 5376
675.773 5319
677.872 5571
679.97 5414
682.067 5386
684.163 5560
686.257 5882
688.349 6170
690.441 6193
692.531 6149
694.62 5765
696.707 5500
698.793 5336
700.878 5491
702.961 5639
705.043 5723
707.124 5900
709.204 5653
711.282 5518
713.358 5499
715.434 5514
717.508 5460
719.581 5303
721.652 5156
723.722 5422
725.791 5560
727.859 5656
729.925 5754
731.99 5717
734.053 5469
736.116 5489
738.177 5396
740.236 5472
742.295 5939
744.352 5562
746.407 5458
748.462 5464
750.515 5597
752.567 5694
754.617 6012
756.666 5701
758.714 5733
760.76 5778
762.806 5736
764.85 5817
766.892 5763
768.934 5787
770.974 5717
773.012 5704
775.05 5990
777.086 5682
779.121 5643
781.155 5775
783.187 5732
785.218 5689
787.248 5697
789.276 5839
791.303 5794
793.329 5797
795.353 5790
797.377 5795
799.399 5698
801.419 5608
803.439 5690
805.457 5837
807.474 5798
809.489 5888
811.504 5708
813.517 5761
815.528 5558
817.539 5644
819.548 5721
821.556 5788
823.563 5863
825.568 5768
827.572 5793
829.575 5831
831.577 5736
833.577 5830
835.576 5801
837.574 5898
839.57 5814
841.565 5844
843.559 5804
845.552 6103
847.543 5728
849.534 5777
851.523 5868
853.51 5929
855.497 5659
857.482 5733
859.466 5670
861.448 5700
863.43 5771
865.41 5879
867.389 5895
869.366 5857
871.343 5836
873.318 5783
875.292 5722
877.264 5802
879.236 5875
881.206 5729
883.175 5571
885.143 5609
887.109 6088
889.074 5654
891.038 5686
893.001 5571
894.962 5638
896.922 5553
898.881 5677
900.839 5509
902.796 5703
904.751 5637
906.705 5723
908.658 5658
910.609 5606
912.56 5635
914.509 5626
916.457 5594
918.403 5573
920.349 5789
922.293 5666
924.236 5660
926.178 5640
928.118 5550
930.058 5478
931.996 5424
933.933 5524
935.868 5477
937.803 5585
939.736 5549
941.668 5577
943.599 5484
945.528 5519
947.457 5499
949.384 5930
951.31 5483
953.234 5549
955.158 5678
957.08 5542
959.001 5516
960.921 5602
962.84 5563
964.757 5421
966.674 5492
968.589 5277
970.503 5016
972.415 4943
974.327 4898
976.237 5069
978.146 5214
980.054 5377
981.961 5398
983.866 5564
985.77 5583
987.673 5620
989.575 5598
991.476 5496
993.375 5368
995.274 5294
997.171 5285
999.067 5404
1000.96 5352
1002.85 5444
1004.74 5465
1006.63 5459
1008.52 5425
1010.41 5337
1012.3 5325
1014.19 5418
1016.07 5375
1017.96 5310
1019.84 5298
1021.72 5314
1023.6 5128
1025.48 5131
1027.36 4908
1029.24 4693
1031.11 4356
1032.99 4156
1034.86 4278
1036.73 4457
1038.6 4611
1040.47 4813
1042.34 5112
1044.21 5125
1046.08 5274
1047.94 5123
1049.81 5126
1051.67 5040
1053.53 5067
1055.39 5108
1057.25 5210
1059.11 5177
1060.97 5257
1062.82 5246
1064.68 5232
1066.53 5404
1068.38 5219
1070.24 5191
1072.09 5240
1073.94 5180
1075.78 5273
1077.63 5191
1079.48 5203
1081.32 5304
1083.16 5345
1085.01 5203
1086.85 5238
1088.69 5170
1090.53 5077
1092.36 5235
1094.2 5170
1096.03 5160
1097.87 5248
1099.7 5086
1101.53 5167
1103.36 5101
1105.19 5152
1107.02 5161
1108.85 5124
1110.68 5067
1112.5 5134
1114.32 5180
1116.15 5279
1117.97 5109
1119.79 5139
1121.61 5297
1123.43 5105
1125.24 5143
1127.06 5078
1128.88 5047
1130.69 5119
1132.5 5135
1134.31 5078
1136.12 5129
1137.93 5079
1139.74 5091
1141.55 5086
1143.35 5192
1145.16 5182
1146.96 5082
1148.76 5146
1150.57 5221
1152.37 5356
1154.17 5013
1155.96 5197
1157.76 5029
1159.56 5018
1161.35 5137
1163.14 5067
1164.94 5062
1166.73 5079
1168.52 5009
1170.31 5122
1172.1 5006
1173.88 5029
1175.67 4958
1177.45 4902
1179.24 4900
1181.02 4952
1182.8 4926
1184.58 4848
1186.36 4845
1188.14 4881
1189.92 4681
1191.69 4540
1193.47 4208
1195.24 4279
1197.01 4107
1198.78 4238
1200.55 4537
1202.32 4665
1204.09 4759
1205.86 4775
1207.63 4853
1209.39 4798
1211.15 4827
1212.92 5135
1214.68 4919
1216.44 4838
1218.2 4893
1219.96 4886
1221.72 4787
1223.47 4914
1225.23 4829
1226.98 4778
1228.73 4821
1230.49 4779
1232.24 4724
1233.99 4815
1235.73 4736
1237.48 4771
1239.23 4851
1240.97 4788
1242.72 4842
1244.46 4789
1246.2 4754
1247.95 4838
1249.69 4857
1251.43 4864
1253.16 4799
1254.9 4789
1256.64 4716
1258.37 4707
1260.1 4700
1261.84 4650
1263.57 4634
1265.3 4652
1267.03 4699
1268.76 4624
1270.48 4797
1272.21 4729
1273.94 4660
1275.66 4686
1277.38 4717
1279.1 4639
1280.83 4654
1282.55 4577
1284.26 4576
1285.98 4639
1287.7 4667
1289.41 4733
1291.13 4590
1292.84 4693
1294.56 4558
1296.27 4618
1297.98 4623
1299.69 4581
1301.39 4574
1303.1 4708
1304.81 4720
1306.51 4603
1308.22 4635
1309.92 4604
1311.62 4616
1313.32 4581
1315.02 4554
1316.72 4607
1318.42 4596
1320.12 4608
1321.81 4583
1323.51 4581
1325.2 4546
1326.89 4532
1328.59 4645
1330.28 4570
1331.97 4602
1333.66 4604
1335.34 4616
1337.03 4575
1338.71 4621
1340.4 4516
1342.08 4693
1343.76 4916
1345.45 5063
1347.13 5214
1348.81 5104
1350.48 4867
1352.16 4701
1353.84 4635
1355.51 4553
1357.19 4540
1358.86 4571
1360.53 4618
1362.2 4535
1363.87 4451
1365.54 4400
1367.21 4366
1368.88 4412
1370.54 4466
1372.21 4531
1373.87 4497
1375.54 4461
1377.2 4508
1378.86 4481
1380.52 4479
1382.18 4303
1383.83 4299
1385.49 4204
1387.15 4295
1388.8 4362
1390.46 4335
1392.11 4415
1393.76 4536
1395.41 4399
1397.06 4357
1398.71 4427
1400.36 4423
1402.01 4376
1403.65 4431
1405.3 4295
1406.94 4307
1408.58 4418
1410.22 4388
1411.87 4454
1413.51 4406
1415.14 4390
1416.78 4488
1418.42 4357
1420.05 4388
1421.69 4428
1423.32 4381
1424.96 4280
1426.59 4407
1428.22 4397
1429.85 4313
1431.48 4371
1433.11 4385
1434.73 4418
1436.36 4439
1437.98 4395
1439.61 4462
1441.23 4363
1442.85 4344
1444.47 4310
1446.09 4415
1447.71 4256
1449.33 4251
1450.95 4248
1452.56 4297
1454.18 4342
1455.79 4221
1457.41 4242
1459.02 4240
1460.63 4250
1462.24 4277
1463.85 4186
1465.46 4265
1467.07 4229
1468.67 4380
1470.28 4251
1471.88 4229
1473.49 4138
1475.09 4282
1476.69 4177
1478.29 4182
1479.89 4159
1481.49 4165
1483.09 4277
1484.68 4302
1486.28 4177
1487.87 4314
1489.47 4274
1491.06 4318
1492.65 4280
1494.24 4223
1495.83 4148
1497.42 4161
1499.01 4184
1500.6 4125
1502.18 4119
1503.77 4389
1505.35 4119
1506.93 4249
1508.52 4150
1510.1 4107
1511.68 4083
1513.26 4111
1514.84 4110
1516.41 4085
1517.99 4074
1519.57 4162
1521.14 3947
1522.71 4084
1524.29 4083
1525.86 3913
1527.43 3945
1529 3942
1530.57 3920
1532.14 4050
1533.7 4022
1535.27 3963
1536.84 4116
1538.4 4189
1539.96 4217
1541.53 4232
1543.09 4123
1544.65 4013
1546.21 3970
1547.77 3814
1549.32 3889
1550.88 3810
1552.44 3890
1553.99 3780
1555.54 3784
1557.1 3659
1558.65 3609
1560.2 3744
1561.75 3636
1563.3 3677
1564.85 3650
1566.4 3670
1567.94 3636
1569.49 3601
1571.03 3435
1572.58 3493
1574.12 3541
1575.66 3584
1577.2 3703
1578.74 3643
1580.28 3539
1581.82 3407
1583.36 3421
1584.89 3314
1586.43 3398
1587.96 3471
1589.5 3459
1591.03 3511
1592.56 3460
1594.09 3344
1595.62 3283
1597.15 3318
1598.68 3535
1600.21 3468
1601.73 3520
1603.26 3514
1604.78 3541
1606.3 3575
1607.83 3524
1609.35 3509
1610.87 3333
1612.39 3246
1613.91 3014
1615.43 2881
1616.94 2870
1618.46 2958
1619.97 3109
1621.49 3340
1623 3495
1624.52 3604
1626.03 3500
1627.54 3419
1629.05 3364
1630.56 3211
1632.06 3264
1633.57 3300
1635.08 3262
1636.58 3240
1638.09 3267
1639.59 3481
1641.09 3265
1642.6 3297
1644.1 3381
1645.6 3342
1647.1 3275
1648.59 3279
1650.09 3267
1651.59 3346
1653.08 3377
1654.58 3338
1656.07 3359
1657.56 3263
1659.06 3217
1660.55 3319
1662.04 3256
1663.53 3438
1665.02 3487
1666.5 3451
1667.99 3474
1669.47 3480
1670.96 3524
1672.44 3731
1673.93 3687
1675.41 3628
1676.89 3593
1678.37 3609
1679.85 3518
1681.33 3567
1682.81 3532
1684.28 3534
1685.76 3555
1687.23 3596
1688.71 3639
1690.18 3585
1691.65 3513
1693.13 3551
1694.6 3477
1696.07 3559
1697.54 3619
1699 3606
1700.47 3534
1701.94 3435
1703.4 3358
1704.87 3275
1706.33 3208
1707.79 3293
1709.26 3399
1710.72 3416
1712.18 3318
1713.64 3197
1715.1 3202
1716.55 3079
1718.01 3117
1719.47 3133
1720.92 3282
1722.38 3265
1723.83 3270
1725.28 3166
1726.73 3067
1728.18 3020
1729.63 3086
1731.08 3233
1732.53 3172
1733.98 3222
1735.43 3024
1736.87 3109
1738.32 3138
1739.76 3181
1741.2 3081
1742.64 3137
1744.09 3159
1745.53 3149
1746.97 3174
1748.4 3146
1749.84 3111
1751.28 3039
1752.72 3226
1754.15 3141
1755.59 3189
1757.02 3111
1758.45 3059
1759.88 3016
1761.32 3006
1762.75 3167
1764.18 3299
1765.6 3219
1767.03 3357
1768.46 3228
1769.88 3242
1771.31 3094
1772.73 3046
1774.16 3035
1775.58 3116
1777 3244
1778.42 3261
1779.84 3424
1781.26 3290
1782.68 3188
1784.1 3061
1785.52 2966
1786.93 2888
1788.35 2964
1789.76 2916
1791.17 2798
1792.59 2816
1794 2820
1795.41 2817
1796.82 2937
1798.23 3072
1799.64 3105
1801.05 3169
1802.45 3174
1803.86 3206
1805.26 3260
1806.67 3155
1808.07 3187
1809.47 3148
1810.88 3116
1812.28 2964
1813.68 2886
1815.08 2743
1816.47 2821
1817.87 2833
1819.27 2941
1820.66 2944
1822.06 3034
1823.45 3110
1824.85 3015
1826.24 3107
1827.63 3137
1829.02 3200
1830.41 3169
1831.8 3139
1833.19 3107
1834.58 3031
1835.97 2973
1837.35 2934
1838.74 2886
1840.12 2810
1841.51 2766
1842.89 2814
1844.27 2909
1845.65 2989
1847.03 3029
1848.41 3012
1849.79 3037
1851.17 3039
1852.55 3030
1853.92 2979
1855.3 3084
1856.67 3143
1858.05 3202
1859.42 3204
1860.79 3087
1862.16 3100
1863.53 3107
1864.9 3005
1866.27 3100
1867.64 3087
1869.01 3089
1870.38 3198
1871.74 3198
1873.11 3208
1874.47 3263
1875.84 3211
1877.2 3185
1878.56 3221
1879.92 3133
1881.28 3119
1882.64 3138
1884 3031
1885.36 2983
1886.71 2975
1888.07 3035
1889.43 2976
1890.78 3007
1892.13 3038
1893.49 3127
1894.84 3099
1896.19 3117
1897.54 3083
1898.89 3125
1900.24 3038
1901.59 2975
1902.94 3111
1904.28 3091
1905.63 3006
1906.97 3004
1908.32 3071
1909.66 3010
1911.01 3006
1912.35 3009
1913.69 2948
1915.03 2938
1916.37 2924
1917.71 2968
1919.05 2978
1920.38 2984
1921.72 2932
1923.06 2969
1924.39 2956
1925.72 2965
1927.06 3093
1928.39 3016
1929.72 2975
1931.05 3029
1932.38 2954
1933.71 3038
1935.04 3045
1936.37 3022
1937.7 3038
1939.02 3004
1940.35 2885
1941.67 2926
1943 2949
1944.32 2964
1945.64 2996
1946.96 2986
1948.28 3009
1949.6 3051
1950.92 3025
1952.24 3172
1953.56 3012
1954.88 2966
1956.19 2962
1957.51 2895
1958.82 2920
1960.14 2772
1961.45 2752
1962.76 2752
1964.07 2790
1965.39 2717
1966.7 2741
1968.01 2756
1969.31 2720
1970.62 2636
1971.93 2659
1973.23 2614
1974.54 2665
1975.84 2665
1977.15 2681
1978.45 2682
1979.75 2628
1981.06 2643
1982.36 2602
1983.66 2554
1984.96 2580
1986.25 2513
1987.55 2535
1988.85 2549
1990.15 2501
1991.44 2548
1992.74 2606
1994.03 2446
1995.32 2503
1996.62 2419
1997.91 2472
1999.2 2469
2000.49 2452
2001.78 2459
2003.07 2462
2004.36 2344
2005.64 2334
2006.93 2276
2008.21 2234
2009.5 2264
2010.78 2309
2012.07 2361
2013.35 2260
2014.63 2244
2015.91 2364
2017.19 2259
2018.47 2262
2019.75 2352
2021.03 2301
2022.31 2380
2023.58 2279
2024.86 2300
2026.14 2181
2027.41 2251
2028.68 2192
2029.96 2142
2031.23 2141
2032.5 2159
2033.77 2254
2035.04 2120
2036.31 2136
2037.58 2147
2038.85 2171
2040.11 2161
2041.38 2256
2042.64 2381
2043.91 2335
2045.17 2419
2046.44 2406
2047.7 2392
2048.96 2255
2050.22 2163
2051.48 2211
2052.74 2201
2054 2188
2055.26 2235
2056.52 2322
2057.77 2286
2059.03 2287
2060.28 2325
2061.54 2275
2062.79 2309
2064.05 2277
2065.3 2194
2066.55 2230
2067.8 2194
2069.05 2134
2070.3 2198
2071.55 2280
2072.8 2265
2074.04 2272
2075.29 2268
2076.53 2209
2077.78 2153
2079.02 2191
2080.27 2169
2081.51 2181
2082.75 2231
2083.99 2251
2085.23 2358
2086.47 2295
2087.71 2358
2088.95 2431
2090.19 2459
2091.42 2504
2092.66 2583
2093.9 2541
2095.13 2578
2096.37 2578
2097.6 2608
2098.83 2439
2100.06 2503
2101.29 2425
2102.52 2452
2103.75 2421
2104.98 2358
2106.21 2371
2107.44 2359
2108.67 2436
2109.89 2423
2111.12 2393
2112.34 2318
2113.57 2331
2114.79 2329
2116.01 2623
2117.23 2407
2118.45 2372
2119.67 2447
2120.89 2423
2122.11 2431
2123.33 2363
2124.55 2389
2125.76 2386
2126.98 2422
2128.2 2410
2129.41 2462
2130.62 2350
2131.84 2280
2133.05 2209
2134.26 2216
2135.47 2189
2136.68 2273
2137.89 2284
2139.1 2402
2140.31 2433
2141.52 2426
2142.72 2403
2143.93 2413
2145.14 2328
2146.34 2183
2147.54 2181
2148.75 2159
2149.95 2167
2151.15 2165
2152.35 2295
2153.55 2251
2154.75 2327
2155.95 2454
2157.15 2378
2158.35 2386
2159.54 2475
2160.74 2391
2161.94 2357
2163.13 2277
2164.32 2264
2165.52 2239
2166.71 2199
2167.9 2175
2169.09 2258
2170.28 2285
2171.47 2230
2172.66 2266
2173.85 2655
2175.04 2349
2176.23 2330
2177.41 2357
2178.6 2269
2179.78 2322
2180.97 2351
2182.15 2321
2183.33 2394
2184.52 2327
2185.7 2360
2186.88 2339
2188.06 2338
2189.24 2304
2190.42 2327
2191.59 2296
2192.77 2290
2193.95 2248
2195.12 2260
2196.3 2298
2197.47 2376
2198.65 2453
2199.82 2452
2200.99 2493
2202.17 2428
2203.34 2444
2204.51 2395
2205.68 2441
2206.85 2350
2208.01 2313
2209.18 2268
2210.35 2142
2211.51 2271
2212.68 2141
2213.84 2182
2215.01 2212
2216.17 2173
2217.34 2231
2218.5 2319
2219.66 2317
2220.82 2416
2221.98 2442
2223.14 2458
2224.3 2463
2225.46 2495
2226.61 2517
2227.77 2473
2228.93 2388
2230.08 2447
2231.24 2330
2232.39 2315
2233.54 2259
2234.7 2200
2235.85 2186
2237 2197
2238.15 2143
2239.3 2179
2240.45 2253
2241.6 2145
2242.74 2310
2243.89 2242
2245.04 2319
2246.18 2270
2247.33 2322
2248.47 2381
2249.62 2353
2250.76 2391
2251.9 2464
2253.04 2377
2254.18 2431
2255.32 2326
2256.46 2355
2257.6 2344
2258.74 2386
2259.88 2382
2261.02 2260
2262.15 2326
2263.29 2229
2264.42 2277
2265.56 2248
2266.69 2305
2267.82 2333
2268.96 2310
2270.09 2339
2271.22 2356
2272.35 2347
2273.48 2247
2274.61 2273
2275.74 2258
2276.86 2265
2277.99 2271
2279.12 2290
2280.24 2318
2281.37 2365
2282.49 2358
2283.61 2311
2284.74 2257
2285.86 2209
2286.98 2306
2288.1 2256
2289.22 2258
2290.34 2283
2291.46 2290
2292.58 2256
2293.7 2392
2294.81 2448
2295.93 2438
2297.04 2433
2298.16 2472
2299.27 2433
2300.39 2457
2301.5 2380
2302.61 2387
2303.72 2296
2304.83 2378
2305.94 2323
2307.05 2389
2308.16 2395
2309.27 2317
2310.38 2364
2311.49 2275
2312.59 2211
2313.7 2182
2314.8 2230
2315.91 2240
2317.01 2243
2318.11 2226
2319.21 2289
2320.32 2320
2321.42 2297
2322.52 2362
2323.62 2321
2324.72 2363
2325.81 2393
2326.91 2327
2328.01 2337
2329.11 2314
2330.2 2315
2331.3 2318
2332.39 2323
2333.48 2307
2334.58 2320
2335.67 2355
2336.76 2365
2337.85 2359
2338.94 2435
2340.03 2349
2341.12 2422
2342.21 2378
2343.3 2358
2344.39 2366
2345.47 2351
2346.56 2328
2347.64 2417
2348.73 2253
2349.81 2345
2350.9 2291
2351.98 2313
2353.06 2323
2354.14 2347
2355.22 2355
2356.3 2358
2357.38 2435
2358.46 2422
2359.54 2502
2360.61 2467
2361.69 2449
2362.77 2366
2363.84 2365
2364.92 2365
2365.99 2310
2367.07 2335
2368.14 2368
2369.21 2419
2370.28 2374
2371.35 2353
2372.42 2375
2373.49 2357
2374.56 2331
2375.63 2417
2376.7 2379
2377.77 2423
2378.83 2475
2379.9 2359
2380.96 2395
2382.03 2367
2383.09 2434
2384.15 2439
2385.22 2438
2386.28 2451
2387.34 2391
2388.4 2396
2389.46 2354
2390.52 2405
2391.58 2266
2392.64 2323
2393.69 2337
2394.75 2297
2395.81 2407
2396.86 2372
2397.92 2395
2398.97 2395
2400.02 2450
2401.08 2403
2402.13 2429
2403.18 2486
2404.23 2507
2405.28 2525
2406.33 2538
2407.38 2567
2408.43 2505
2409.48 2503
2410.52 2407
2411.57 2480
2412.62 2471
2413.66 2439
2414.71 2507
2415.75 2514
2416.79 2553
2417.84 2554
2418.88 2494
2419.92 2447
2420.96 2500
2422 2502
2423.04 2424
2424.08 2656
2425.12 2470
2426.16 2521
2427.19 3004
2428.23 2552
2429.26 2480
2430.3 2520
2431.33 2418
2432.37 2517
2433.4 2488
2434.43 2452
2435.46 2405
2436.5 2500
2437.53 2515
2438.56 2477
2439.59 2548
2440.61 2439
2441.64 2452
2442.67 2502
2443.7 2566
2444.72 2517
2445.75 2506
2446.77 2497
2447.8 2488
2448.82 2449
2449.84 2482
2450.87 2469
2451.89 2503
2452.91 2497
2453.93 2502
2454.95 2536
2455.97 2386
2456.99 2483
2458.01 2450
2459.02 2401
2460.04 2400
2461.06 2408
2462.07 2422
2463.09 2376
2464.1 2426
2465.11 2465
2466.13 2420
2467.14 2409
2468.15 2432
2469.16 2329
2470.17 2331
2471.18 2337
2472.19 2319
2473.2 2400
2474.21 2355
2475.22 2342
2476.22 2362
2477.23 2407
2478.23 2388
2479.24 2403
2480.24 2408
2481.25 2389
2482.25 2443
2483.25 2345
2484.25 2427
2485.25 2444
2486.25 2426
2487.25 2354
2488.25 2495
2489.25 2395
2490.25 2408
2491.25 2404
2492.24 2345
2493.24 2435
2494.23 2370
2495.23 2309
2496.22 2397
2497.22 2318
2498.21 2354
2499.2 2389
2500.19 2319
2501.19 2315
2502.18 2421
2503.17 2384
2504.15 2387
2505.14 2410
2506.13 2490
2507.12 2463
2508.11 2464
2509.09 2454
2510.08 2440
2511.06 2421
2512.05 2431
2513.03 2480
2514.01 2405
2515 2396
2515.98 2359
2516.96 2411
2517.94 2448
2518.92 2398
2519.9 2405
2520.88 2438
2521.85 2355
2522.83 2492
2523.81 2344
2524.78 2323
2525.76 2348
2526.73 2418
2527.71 2360
2528.68 2372
2529.66 2463
2530.63 2477
2531.6 2360
2532.57 2384
2533.54 2344
2534.51 2395
2535.48 2454
2536.45 2380
2537.42 2416
2538.39 2388
2539.35 2363
2540.32 2360
2541.28 2480
2542.25 2412
2543.21 2509
2544.18 2402
2545.14 2397
2546.1 2397
2547.07 2429
2548.03 2458
2548.99 2477
2549.95 2518
2550.91 2379
2551.87 2466
2552.82 2409
2553.78 2515
2554.74 2432
2555.7 2434
2556.65 2372
2557.61 2459
2558.56 2526
2559.52 2361
2560.47 2416
2561.42 2433
2562.37 2358
2563.32 2412
2564.28 2422
2565.23 2357
2566.18 2363
2567.12 2412
2568.07 2356
2569.02 2489
2569.97 2434
2570.92 2346
2571.86 2416
2572.81 2748
2573.75 2387
2574.7 2456
2575.64 2541
2576.58 2421
2577.52 2392
2578.47 2446
2579.41 2440
2580.35 2399
2581.29 2390
2582.23 2449
2583.17 2397
2584.1 2385
2585.04 2363
2585.98 2388
2586.91 2406
2587.85 2334
2588.78 2378
2589.72 2374
2590.65 2357
2591.58 2373
2592.52 2480
2593.45 2372
2594.38 2384
2595.31 2439
2596.24 2359
2597.17 2428
2598.1 2440
2599.03 2457
2599.96 2462
2600.88 2371
2601.81 2384
2602.74 2673
2603.66 2403
2604.58 2393
2605.51 2351
2606.43 2381
2607.35 2383
2608.28 2411
2609.2 2426
2610.12 2298
2611.04 2382
2611.96 2343
2612.88 2391
2613.8 2416
2614.72 2505
2615.63 2448
2616.55 2435
2617.47 2406
2618.38 2332
2619.3 2391
2620.21 2417
2621.12 2351
2622.04 2397
2622.95 2384
2623.86 2391
2624.77 2386
2625.68 2370
2626.59 2379
2627.5 2400
2628.41 2374
2629.32 2381
2630.23 2424
2631.13 2390
2632.04 2412
2632.94 2389
2633.85 2375
2634.75 2420
2635.66 2457
2636.56 2420
2637.46 2334
2638.37 2358
2639.27 2464
2640.17 2471
2641.07 2389
2641.97 2452
2642.87 2421
2643.77 2417
2644.66 2414
2645.56 2458
2646.46 2409
2647.35 2451
2648.25 2391
2649.14 2417
2650.04 2424
2650.93 2374
2651.82 2447
2652.72 2643
2653.61 2343
2654.5 2412
2655.39 2417
2656.28 2407
2657.17 2387
2658.06 2379
2658.95 2392
2659.83 2350
2660.72 2422
2661.61 2435
2662.49 2342
2663.38 2412
2664.26 2388
2665.15 2368
2666.03 2350
2666.91 2497
2667.79 2353
2668.68 2408
2669.56 2369
2670.44 2269
2671.32 2358
2672.2 2322
2673.07 2368
2673.95 2358
2674.83 2382
2675.71 2348
2676.58 2369
2677.46 2360
2678.33 2376
2679.21 2361
2680.08 2348
2680.95 2379
2681.82 2432
2682.7 2301
2683.57 2359
2684.44 2461
2685.31 2322
2686.18 2376
2687.05 2330
2687.91 2327
2688.78 2362
2689.65 2360
2690.51 2320
2691.38 2324
2692.24 2314
2693.11 2353
2693.97 2313
2694.84 2325
2695.7 2292
2696.56 2356
2697.42 2342
2698.28 2322
2699.14 2327
2700 2317
2700.86 2356
2701.72 2272
2702.58 2357
2703.44 2323
2704.29 2310
2705.15 2337
2706 2329
2706.86 2299
2707.71 2314
2708.57 2296
2709.42 2311
2710.27 2339
2711.12 2319
2711.97 2332
2712.83 2340
2713.67 2342
2714.52 2278
2715.37 2430
2716.22 2320
2717.07 2281
2717.92 2393
2718.76 2297
2719.61 2300
2720.45 2365
2721.3 2335
2722.14 2339
2722.98 2298
2723.83 2309
2724.67 2431
2725.51 2311
2726.35 2299
2727.19 2349
2728.03 2303
2728.87 2234
2729.71 2322
2730.55 2255
2731.38 2278
2732.22 2326
2733.06 2356
2733.89 2345
2734.73 2275
2735.56 2309
2736.39 2272
2737.23 2296
2738.06 2283
2738.89 2338
2739.72 2450
2740.55 2280
2741.38 2280
2742.21 2282
2743.04 2336
2743.87 2317
2744.7 2308
2745.52 2372
2746.35 2317
2747.18 2336
2748 2378
2748.83 2313
2749.65 2349
2750.47 2291
2751.3 2301
2752.12 2332
2752.94 2298
2753.76 2310
2754.58 2298
2755.4 2286
2756.22 2316
2757.04 2289
2757.85 2313
2758.67 2244
2759.49 2316
2760.3 2308
2761.12 2239
2761.93 2395
2762.75 2525
2763.56 2256
2764.38 2357
2765.19 2226
2766 2271
2766.81 2315
2767.62 2261
2768.43 2326
2769.24 2357
2770.05 2283
2770.86 2310
2771.66 2307
2772.47 2216
2773.28 2287
2774.08 2230
2774.89 2233
2775.69 2274
2776.5 2309
2777.3 2247
2778.1 2204
2778.9 2250
2779.71 2304
2780.51 2279
2781.31 2334
2782.11 2252
2782.91 2277
2783.7 2217
2784.5 2274
2785.3 2268
2786.1 2189
2786.89 2242
2787.69 2194
2788.48 2204
2789.28 2232
2790.07 2282
2790.86 2237
2791.65 2232
2792.45 2229
2793.24 2225
2794.03 2229
2794.82 2231
2795.61 2208
2796.39 2203
2797.18 2247
2797.97 2259
2798.76 2222
2799.54 2244
2800.33 2283
2801.11 2255
2801.9 2239
2802.68 2221
2803.46 2213
2804.25 2290
2805.03 2234
2805.81 2231
2806.59 2179
2807.37 2219
2808.15 2332
2808.93 2284
2809.71 2278
2810.49 2218
2811.26 2267
2812.04 2284
2812.81 2220
2813.59 2233
2814.36 2188
2815.14 2191
2815.91 2205
2816.68 2264
2817.46 2199
2818.23 2232
2819 2227
2819.77 2279
2820.54 2192
2821.31 2211
2822.08 2269
2822.84 2218
2823.61 2302
2824.38 2224
2825.14 2250
2825.91 2242
2826.67 2180
2827.44 2193
2828.2 2221
2828.96 2205
2829.73 2176
2830.49 2209
2831.25 2278
2832.01 2191
2832.77 2259
2833.53 2229
2834.29 2207
2835.05 2233
2835.8 2218
2836.56 2223
2837.32 2186
2838.07 2230
2838.83 2251
2839.58 2173
2840.33 2262
2841.09 2229
2841.84 2168
2842.59 2167
2843.34 2182
2844.09 2217
2844.84 2230
2845.59 2273
2846.34 2199
2847.09 2308
2847.84 2207
2848.59 2200
2849.33 2174
2850.08 2318
2850.82 2248
2851.57 2242
2852.31 2244
2853.05 2200
2853.8 2236
2854.54 2213
2855.28 2168
2856.02 2225
2856.76 2260
2857.5 2220
2858.24 2235
2858.98 2325
2859.72 2234
2860.45 2224
2861.19 2265
2861.92 2187
2862.66 2258
2863.39 2228
2864.13 2245
2864.86 2162
2865.59 2231
2866.33 2201
2867.06 2217
2867.79 2218
2868.52 2228
2869.25 2198
2869.98 2243
2870.71 2279
2871.43 2237
2872.16 2276
2872.89 2293
2873.61 2422
2874.34 2558
2875.06 2446
2875.79 2517
2876.51 2582
2877.23 2532
2877.96 2556
2878.68 2485
2879.4 2410
2880.12 2504
2880.84 2332
2881.56 2329
2882.28 2298
2882.99 2229
2883.71 2277
2884.43 2244
2885.14 2247
2885.86 2252
2886.57 2271
2887.29 2262
2888 2252
2888.71 2283
2889.43 2172
2890.14 2179
2890.85 2253
2891.56 2229
2892.27 2246
2892.98 2296
2893.69 2195
2894.39 2263
2895.1 2155
2895.81 2240
2896.51 2193
2897.22 2194
2897.92 2159
2898.63 2202
2899.33 2176
2900.03 2174
2900.74 2208
2901.44 2202
2902.14 2153
2902.84 2492
2903.54 2165
2904.24 2165
2904.93 2189
